Trial Number,value now,Delay,Value later,Value later delay,Response,reaction time,SubID,Cond
1,20,0,45,31,0,1.7314,28,1
2,20,0,29,31,0,1.6698,28,1
3,20,0,77,31,1,0.8521,28,1
4,20,0,23,122,0,1.2833,28,1
5,20,0,25,1,1,1.3134,28,1
6,20,0,23,1,1,1.1373,28,1
7,20,0,25,58,0,1.5478,28,1
8,20,0,27,7,0,0.5911,28,1
9,20,0,21,1,1,1.1833,28,1
10,20,0,27,13,0,1.3976,28,1
11,20,0,31,31,0,1.1863,28,1
12,20,0,29,13,0,2.2859,28,1
13,20,0,23,31,0,1.315,28,1
14,20,0,45,7,1,1.2302,28,1
15,20,0,69,1,1,0.8076,28,1
16,20,0,21,58,1,0.8814,28,1
17,20,0,61,13,0,1.1561,28,1
18,20,0,57,122,0,1.2677,28,1
19,20,0,41,13,0,1.1481,28,1
20,20,0,37,7,1,1.3458,28,1
21,20,0,31,13,0,1.4333,28,1
22,20,0,61,122,0,1.0603,28,1
23,20,0,77,7,1,1.2548,28,1
24,20,0,21,7,0,1.1052,28,1
25,20,0,69,7,0,0.7549,28,1
26,20,0,33,122,0,1.1512,28,1
27,20,0,77,13,0,1.434,28,1
28,20,0,25,31,0,1.3101,28,1
29,20,0,69,122,0,1.3954,28,1
30,20,0,61,1,1,1.0994,28,1
31,20,0,41,7,1,1.1282,28,1
32,20,0,21,13,0,1.0375,28,1
33,20,0,27,31,0,0.993,28,1
34,20,0,51,7,1,1.1309,28,1
35,20,0,33,1,1,1.2495,28,1
36,20,0,57,31,0,1.2614,28,1
37,20,0,51,13,0,2.0756,28,1
38,20,0,41,122,0,1.6458,28,1
39,20,0,21,1,0,0.8481,28,1
40,20,0,45,1,1,1.0249,28,1
41,20,0,51,122,0,1.0402,28,1
42,20,0,33,58,0,0.8852,28,1
43,20,0,57,7,0,1.5782,28,1
44,20,0,61,31,0,0.902,28,1
45,20,0,21,31,0,1.1356,28,1
46,20,0,41,58,0,0.7819,28,1
47,20,0,69,31,0,0.7399,28,1
48,20,0,45,122,0,1.7082,28,1
49,20,0,29,1,1,0.7799,28,1
50,20,0,77,1,1,1.1577,28,1
51,20,0,25,7,0,2.2205,28,1
52,20,0,21,7,0,2.1413,28,1
53,20,0,31,7,1,1.3462,28,1
54,20,0,25,13,0,1.411,28,1
55,20,0,77,58,0,1.2209,28,1
56,20,0,57,13,1,1.8093,28,1
57,20,0,29,7,1,1.096,28,1
58,20,0,23,7,0,1.5218,28,1
59,20,0,27,58,0,0.946,28,1
60,20,0,37,13,0,1.5415,28,1
61,20,0,21,31,0,1.7367,28,1
62,20,0,51,1,1,1.3899,28,1
63,20,0,51,58,0,1.1016,28,1
64,20,0,41,1,1,1.4209,28,1
65,20,0,41,31,1,1.9537,28,1
66,20,0,29,122,0,0.7459,28,1
67,20,0,33,7,1,1.3914,28,1
68,20,0,69,58,0,0.9558,28,1
69,20,0,37,31,0,1.055,28,1
70,20,0,23,13,0,1.261,28,1
71,20,0,37,122,0,0.8507,28,1
72,20,0,21,58,0,0.8471,28,1
73,20,0,31,122,0,0.9221,28,1
74,20,0,61,58,0,1.4932,28,1
75,20,0,77,122,0,0.8204,28,1
76,20,0,23,58,0,1.0013,28,1
77,20,0,33,31,0,1.1274,28,1
78,20,0,69,13,1,1.3059,28,1
79,20,0,25,122,0,1.4617,28,1
80,20,0,21,13,0,1.6313,28,1
81,20,0,33,13,0,1.541,28,1
82,20,0,31,1,1,0.8354,28,1
83,20,0,21,122,0,1.1776,28,1
84,20,0,45,13,1,1.7979,28,1
85,20,0,57,1,1,0.8349,28,1
86,20,0,27,1,1,0.952,28,1
87,20,0,45,58,0,1.7216,28,1
88,20,0,31,58,0,0.9153,28,1
89,20,0,37,1,1,1.087,28,1
90,20,0,57,58,0,1.249,28,1
91,20,0,29,58,0,1.3843,28,1
92,20,0,27,122,0,1.1673,28,1
93,20,0,51,31,0,0.9873,28,1
94,20,0,21,122,0,0.9893,28,1
95,20,0,37,58,0,0.8908,28,1
96,20,0,61,7,0,1.3372,28,1
1,20,0,41,13,1,5.9481,12,1
2,20,0,21,7,0,9.3511,12,1
3,20,0,45,31,1,1.7969,12,1
4,20,0,27,58,0,4.4385,12,1
5,20,0,51,31,1,1.5877,12,1
6,20,0,33,58,1,4.8573,12,1
7,20,0,33,13,1,2.6118,12,1
8,20,0,27,7,1,5.722,12,1
9,20,0,33,7,1,7.5301,12,1
10,20,0,41,7,1,4.2638,12,1
11,20,0,31,31,1,1.7012,12,1
12,20,0,77,13,1,3.0798,12,1
13,20,0,25,58,0,3.0545,12,1
14,20,0,77,122,1,2.5105,12,1
15,20,0,23,31,0,2.3379,12,1
16,20,0,27,13,1,2.7938,12,1
17,20,0,21,13,0,3.0211,12,1
18,20,0,27,1,1,4.0078,12,1
19,20,0,29,122,0,1.5929,12,1
20,20,0,41,122,0,7.5861,12,1
21,20,0,69,58,1,2.1014,12,1
22,20,0,25,122,0,1.6961,12,1
23,20,0,57,58,1,6.4312,12,1
24,20,0,69,122,1,1.9833,12,1
25,20,0,37,13,1,14.2062,12,1
26,20,0,27,31,1,5.2816,12,1
27,20,0,61,1,1,0.9715,12,1
28,20,0,21,31,0,1.5673,12,1
29,20,0,29,1,1,1.103,12,1
30,20,0,41,58,1,2.978,12,1
31,20,0,69,31,1,1.0261,12,1
32,20,0,61,13,1,2.0799,12,1
33,20,0,45,13,1,3.5363,12,1
34,20,0,33,1,1,1.1433,12,1
35,20,0,21,122,0,1.6886,12,1
36,20,0,23,58,0,2.862,12,1
37,20,0,51,122,1,1.4704,12,1
38,20,0,29,13,1,1.6711,12,1
39,20,0,27,122,0,6.8546,12,1
40,20,0,51,58,1,1.1533,12,1
41,20,0,25,7,1,2.1888,12,1
42,20,0,21,1,0,1.2093,12,1
43,20,0,57,13,1,1.2515,12,1
44,20,0,23,7,0,3.5991,12,1
45,20,0,29,31,0,0.4933,12,1
46,20,0,57,122,1,1.9507,12,1
47,20,0,69,7,1,1.0121,12,1
48,20,0,37,1,1,1.4521,12,1
49,20,0,77,58,1,1.4358,12,1
50,20,0,23,13,0,3.6843,12,1
51,20,0,69,13,1,2.7105,12,1
52,20,0,25,31,1,4.0349,12,1
53,20,0,37,58,1,1.0523,12,1
54,20,0,31,1,1,1.1956,12,1
55,20,0,37,7,1,1.6792,12,1
56,20,0,21,58,0,1.333,12,1
57,20,0,37,31,1,1.6525,12,1
58,20,0,77,7,1,0.9753,12,1
59,20,0,61,31,1,1.4493,12,1
60,20,0,45,122,0,5.2453,12,1
61,20,0,23,1,1,2.7682,12,1
62,20,0,69,1,1,1.034,12,1
63,20,0,37,122,0,2.1188,12,1
64,20,0,77,1,1,1.2216,12,1
65,20,0,21,1,0,1.6948,12,1
66,20,0,51,7,1,1.1806,12,1
67,20,0,61,58,1,1.4736,12,1
68,20,0,45,1,1,1.8017,12,1
69,20,0,33,31,1,1.8538,12,1
70,20,0,33,122,0,2.4808,12,1
71,20,0,25,1,1,1.3232,12,1
72,20,0,31,58,1,1.3731,12,1
73,20,0,31,7,1,1.7566,12,1
74,20,0,45,7,1,1.5722,12,1
75,20,0,25,13,1,1.6731,12,1
76,20,0,29,58,1,2.0742,12,1
77,20,0,23,122,0,1.5023,12,1
78,20,0,57,31,1,1.4592,12,1
79,20,0,31,13,1,1.5888,12,1
80,20,0,21,7,0,1.292,12,1
81,20,0,41,31,1,2.4544,12,1
82,20,0,41,1,1,3.9434,12,1
83,20,0,57,7,1,3.2406,12,1
84,20,0,61,122,1,3.847,12,1
85,20,0,57,1,1,1.7629,12,1
86,20,0,51,13,1,1.0975,12,1
87,20,0,45,58,1,2.7086,12,1
88,20,0,51,1,1,4.1657,12,1
89,20,0,29,7,1,1.6838,12,1
90,20,0,31,122,0,2.7261,12,1
91,20,0,21,13,0,1.673,12,1
92,20,0,77,31,1,1.4837,12,1
93,20,0,21,31,0,1.0926,12,1
94,20,0,61,7,1,1.8533,12,1
95,20,0,21,58,0,1.3245,12,1
96,20,0,21,122,0,1.0643,12,1
1,20,0,23,60,0,1.4717,24,1
2,20,0,47,30,1,1.9414,24,1
3,20,0,49,3,1,1.0624,24,1
4,20,0,25,120,0,1.217,24,1
5,20,0,25,3,0,1.1736,24,1
6,20,0,75,14,1,0.9559,24,1
7,20,0,36.2,3,0,1.6723,24,1
8,20,0,23,120,0,0.9718,24,1
9,20,0,71,120,0,1.3155,24,1
10,20,0,47,8,1,1.1588,24,1
11,20,0,21.6,60,1,1.1472,24,1
12,20,0,60,3,1,1.8474,24,1
13,20,0,60,14,0,1.7348,24,1
14,20,0,32,14,0,1.5719,24,1
15,20,0,58,120,0,1.0167,24,1
16,20,0,27.4,30,0,1.4028,24,1
17,20,0,47,14,0,1.4718,24,1
18,20,0,28.6,3,0,1.0234,24,1
19,20,0,58,14,0,1.1017,24,1
20,20,0,35,3,1,1.2454,24,1
21,20,0,20.6,8,0,1.4614,24,1
22,20,0,40.6,120,0,1.2147,24,1
23,20,0,32,120,0,1.1969,24,1
24,20,0,20.6,3,0,1.3165,24,1
25,20,0,25,30,0,1.5948,24,1
26,20,0,21.6,30,0,1.1789,24,1
27,20,0,71,30,0,1.2342,24,1
28,20,0,49,120,0,0.9681,24,1
29,20,0,25,14,0,1.2374,24,1
30,20,0,27.4,120,0,1.1408,24,1
31,20,0,23,14,0,1.3102,24,1
32,20,0,32,30,0,1.5353,24,1
33,20,0,75,3,1,1.3285,24,1
34,20,0,36.2,60,0,0.7815,24,1
35,20,0,60,8,1,1.0745,24,1
36,20,0,28.6,120,0,0.9219,24,1
37,20,0,71,14,0,0.7627,24,1
38,20,0,47,60,0,0.7495,24,1
39,20,0,58,3,1,1.1293,24,1
40,20,0,21.6,120,0,0.957,24,1
41,20,0,71,60,0,1.1101,24,1
42,20,0,60,120,0,0.8642,24,1
43,20,0,36.2,30,0,0.8307,24,1
44,20,0,58,8,1,1.2289,24,1
45,20,0,49,8,1,1.1665,24,1
46,20,0,40.6,3,1,1.8373,24,1
47,20,0,35,8,0,1.1451,24,1
48,20,0,28.6,30,0,1.3204,24,1
49,20,0,27.4,8,0,1.1131,24,1
50,20,0,32,8,1,1.4575,24,1
51,20,0,35,14,0,1.5807,24,1
52,20,0,21.6,14,0,1.23,24,1
53,20,0,75,8,0,0.9694,24,1
54,20,0,32,3,1,1.1318,24,1
55,20,0,71,3,1,1.2022,24,1
56,20,0,25,60,0,0.8892,24,1
57,20,0,47,3,1,1.0852,24,1
58,20,0,20.6,120,0,0.9921,24,1
59,20,0,21.6,8,0,1.1636,24,1
60,20,0,20.6,14,0,0.8796,24,1
61,20,0,40.6,60,0,1.1151,24,1
62,20,0,35,30,0,1.4927,24,1
63,20,0,36.2,120,0,1.1165,24,1
64,20,0,20.6,60,0,0.917,24,1
65,20,0,49,14,0,0.9389,24,1
66,20,0,28.6,14,0,1.1018,24,1
67,20,0,75,30,0,0.9958,24,1
68,20,0,27.4,14,0,1.0276,24,1
69,20,0,71,8,0,0.9959,24,1
70,20,0,40.6,30,0,0.7509,24,1
71,20,0,75,120,0,0.733,24,1
72,20,0,23,3,0,1.2793,24,1
73,20,0,35,120,0,1.1128,24,1
74,20,0,23,8,0,1.4016,24,1
75,20,0,60,30,0,0.8788,24,1
76,20,0,36.2,8,0,1.3528,24,1
77,20,0,58,60,0,0.9354,24,1
78,20,0,58,30,0,1.0497,24,1
79,20,0,47,120,0,0.9847,24,1
80,20,0,49,30,0,1.1222,24,1
81,20,0,40.6,14,0,0.9558,24,1
82,20,0,75,60,1,1.6507,24,1
83,20,0,21.6,3,0,0.9234,24,1
84,20,0,20.6,30,0,1.2305,24,1
85,20,0,27.4,60,0,0.8351,24,1
86,20,0,23,30,0,0.956,24,1
87,20,0,40.6,8,0,0.8345,24,1
88,20,0,25,8,0,0.7996,24,1
89,20,0,32,60,0,1.0121,24,1
90,20,0,49,60,0,0.9939,24,1
91,20,0,60,60,0,1.1124,24,1
92,20,0,28.6,8,0,1.119,24,1
93,20,0,27.4,3,0,1.0427,24,1
94,20,0,35,60,0,1.1414,24,1
95,20,0,28.6,60,0,1.0576,24,1
96,20,0,36.2,14,0,1.1428,24,1
1,20,0,50,118,0,7.0734,34,1
2,20,0,20.4,15,0,2.1881,34,1
3,20,0,41.4,6,1,6.6764,34,1
4,20,0,41.4,29,1,2.1493,34,1
5,20,0,26.6,62,0,4.2217,34,1
6,20,0,50,62,1,2.4994,34,1
7,20,0,24,2,1,1.3653,34,1
8,20,0,29.4,15,1,1.8373,34,1
9,20,0,41.4,62,1,6.9656,34,1
10,20,0,46,62,1,5.7334,34,1
11,20,0,20.4,62,0,2.4803,34,1
12,20,0,46,2,1,1.6828,34,1
13,20,0,24,6,1,1.3705,34,1
14,20,0,46,6,1,2.5855,34,1
15,20,0,76,29,1,2.9461,34,1
16,20,0,70,29,1,6.259,34,1
17,20,0,26.6,15,1,2.3712,34,1
18,20,0,36.6,6,1,1.1382,34,1
19,20,0,30,118,0,2.7336,34,1
20,20,0,36.6,118,0,1.9363,34,1
21,20,0,41.4,15,1,11.3047,34,1
22,20,0,62,29,1,2.4756,34,1
23,20,0,62,62,1,1.641,34,1
24,20,0,21.6,6,0,2.0175,34,1
25,20,0,26.6,29,1,6.1726,34,1
26,20,0,30,15,1,1.6972,34,1
27,20,0,46,15,1,3.005,34,1
28,20,0,30,29,1,1.6315,34,1
29,20,0,21.6,15,0,2.3498,34,1
30,20,0,36.6,62,1,4.8146,34,1
31,20,0,76,2,1,2.2024,34,1
32,20,0,24,62,1,3.776,34,1
33,20,0,21.6,118,0,1.3574,34,1
34,20,0,34,62,1,9.7579,34,1
35,20,0,50,15,1,2.101,34,1
36,20,0,29.4,62,0,3.6025,34,1
37,20,0,24,29,0,4.2801,34,1
38,20,0,24,15,1,1.7633,34,1
39,20,0,76,15,1,2.2386,34,1
40,20,0,24,29,0,3.949,34,1
41,20,0,20.4,2,0,2.1726,34,1
42,20,0,21.6,29,0,3.7438,34,1
43,20,0,56,29,1,3.0931,34,1
44,20,0,46,29,1,1.3499,34,1
45,20,0,56,2,1,1.3181,34,1
46,20,0,76,118,1,1.2855,34,1
47,20,0,30,62,1,1.7514,34,1
48,20,0,36.6,2,1,1.4273,34,1
49,20,0,29.4,6,1,1.3561,34,1
50,20,0,62,15,1,2.2696,34,1
51,20,0,26.6,118,0,2.2534,34,1
52,20,0,62,2,1,1.9418,34,1
53,20,0,20.4,118,0,2.2024,34,1
54,20,0,29.4,2,1,7.7025,34,1
55,20,0,20.4,6,0,2.1285,34,1
56,20,0,30,2,1,5.2186,34,1
57,20,0,29.4,118,0,3.0165,34,1
58,20,0,50,6,1,1.2034,34,1
59,20,0,36.6,15,1,1.1962,34,1
60,20,0,26.6,6,1,2.8828,34,1
61,20,0,21.6,62,0,2.2024,34,1
62,20,0,30,6,1,8.3611,34,1
63,20,0,41.4,118,0,2.8101,34,1
64,20,0,34,2,1,1.3329,34,1
65,20,0,34,29,1,2.7035,34,1
66,20,0,46,118,1,3.013,34,1
67,20,0,24,2,1,1.5932,34,1
68,20,0,56,6,1,1.1381,34,1
69,20,0,70,6,1,1.1124,34,1
70,20,0,70,15,1,1.3093,34,1
71,20,0,24,62,0,1.5499,34,1
72,20,0,62,6,1,2.7959,34,1
73,20,0,76,6,1,1.149,34,1
74,20,0,50,29,1,2.7326,34,1
75,20,0,56,15,1,1.6193,34,1
76,20,0,24,118,0,4.4254,34,1
77,20,0,34,15,1,3.1848,34,1
78,20,0,24,15,1,4.9804,34,1
79,20,0,29.4,29,1,3.2379,34,1
80,20,0,21.6,2,0,1.1597,34,1
81,20,0,36.6,29,1,4.0243,34,1
82,20,0,56,118,1,3.1915,34,1
83,20,0,62,118,1,1.7684,34,1
84,20,0,24,6,1,1.441,34,1
85,20,0,56,62,1,1.5635,34,1
86,20,0,34,6,1,1.2273,34,1
87,20,0,70,118,1,2.134,34,1
88,20,0,70,2,1,1.0099,34,1
89,20,0,20.4,29,0,1.6791,34,1
90,20,0,76,62,1,1.6778,34,1
91,20,0,24,118,0,4.2646,34,1
92,20,0,50,2,1,2.2412,34,1
93,20,0,70,62,1,1.3575,34,1
94,20,0,41.4,2,1,1.4015,34,1
95,20,0,26.6,2,1,1.5496,34,1
96,20,0,34,118,1,1.2502,34,1
1,20,0,21.6,30,0,1.4155,26,1
2,20,0,35,14,1,1.1664,26,1
3,20,0,71,60,0,1.1443,26,1
4,20,0,27.4,30,0,1.4506,26,1
5,20,0,28.6,8,1,1.1603,26,1
6,20,0,60,14,1,1.8429,26,1
7,20,0,21.6,120,0,1.3453,26,1
8,20,0,27.4,3,1,1.193,26,1
9,20,0,60,8,1,1.8291,26,1
10,20,0,25,3,1,1.0613,26,1
11,20,0,21.6,8,0,1.2396,26,1
12,20,0,21.6,3,1,0.8489,26,1
13,20,0,47,60,0,1.5321,26,1
14,20,0,32,3,1,1.0591,26,1
15,20,0,36.2,14,0,1.7741,26,1
16,20,0,75,14,0,1.1367,26,1
17,20,0,40.6,14,0,1.0975,26,1
18,20,0,21.6,14,0,1.2979,26,1
19,20,0,25,60,0,1.2738,26,1
20,20,0,25,120,0,0.886,26,1
21,20,0,58,120,0,0.9957,26,1
22,20,0,47,3,1,0.7857,26,1
23,20,0,28.6,120,0,0.9138,26,1
24,20,0,40.6,8,0,1.1435,26,1
25,20,0,75,8,1,1.3217,26,1
26,20,0,71,14,0,0.9734,26,1
27,20,0,49,3,0,1.3895,26,1
28,20,0,40.6,120,0,0.9544,26,1
29,20,0,36.2,30,0,1.2758,26,1
30,20,0,49,8,1,1.2941,26,1
31,20,0,49,120,0,1.3481,26,1
32,20,0,20.6,120,0,0.9811,26,1
33,20,0,71,8,1,1.1617,26,1
34,20,0,23,3,0,0.8093,26,1
35,20,0,49,14,0,0.8352,26,1
36,20,0,23,120,0,0.982,26,1
37,20,0,60,60,0,0.9872,26,1
38,20,0,20.6,30,0,1.3449,26,1
39,20,0,49,30,0,1.1285,26,1
40,20,0,60,3,1,0.8687,26,1
41,20,0,58,30,0,0.7082,26,1
42,20,0,27.4,120,0,0.955,26,1
43,20,0,35,30,0,0.8132,26,1
44,20,0,75,120,0,0.8336,26,1
45,20,0,36.2,8,1,1.6796,26,1
46,20,0,58,8,1,1.2683,26,1
47,20,0,36.2,60,0,1.1072,26,1
48,20,0,49,60,0,1.2945,26,1
49,20,0,27.4,14,0,1.3994,26,1
50,20,0,75,30,0,0.9852,26,1
51,20,0,27.4,8,1,0.9351,26,1
52,20,0,32,8,1,0.7811,26,1
53,20,0,40.6,30,0,0.9549,26,1
54,20,0,28.6,30,0,0.82,26,1
55,20,0,20.6,3,0,0.8363,26,1
56,20,0,27.4,60,0,1.0363,26,1
57,20,0,58,3,1,1.0873,26,1
58,20,0,35,8,1,1.2294,26,1
59,20,0,60,120,0,0.9093,26,1
60,20,0,35,60,0,0.8516,26,1
61,20,0,36.2,3,1,1.4781,26,1
62,20,0,23,14,0,1.1733,26,1
63,20,0,47,30,0,1.0732,26,1
64,20,0,35,3,1,0.7455,26,1
65,20,0,23,30,0,1.2766,26,1
66,20,0,35,120,0,0.841,26,1
67,20,0,25,30,0,1.3307,26,1
68,20,0,71,30,0,0.9902,26,1
69,20,0,23,8,1,0.9457,26,1
70,20,0,40.6,3,0,0.8547,26,1
71,20,0,75,60,0,1.0324,26,1
72,20,0,28.6,60,0,1.0341,26,1
73,20,0,36.2,120,0,1.2458,26,1
74,20,0,25,8,1,0.761,26,1
75,20,0,28.6,14,1,1.6563,26,1
76,20,0,71,120,0,1.0825,26,1
77,20,0,21.6,60,0,1.1112,26,1
78,20,0,32,14,0,1.5431,26,1
79,20,0,32,120,0,1.3064,26,1
80,20,0,20.6,8,0,1.7602,26,1
81,20,0,47,120,0,1.0434,26,1
82,20,0,47,14,1,1.172,26,1
83,20,0,58,60,0,1.2141,26,1
84,20,0,58,14,1,1.1344,26,1
85,20,0,20.6,60,0,1.1942,26,1
86,20,0,20.6,14,0,1.344,26,1
87,20,0,40.6,60,0,1.5801,26,1
88,20,0,32,30,0,1.6766,26,1
89,20,0,47,8,1,0.7428,26,1
90,20,0,32,60,0,0.8274,26,1
91,20,0,25,14,1,1.5082,26,1
92,20,0,28.6,3,0,1.23,26,1
93,20,0,23,60,0,1.1834,26,1
94,20,0,71,3,1,1.456,26,1
95,20,0,75,3,1,0.6919,26,1
96,20,0,60,30,0,1.0441,26,1
1,20,0,26.6,118,0,1.7964,2,1
2,20,0,34,29,1,2.0775,2,1
3,20,0,76,2,1,1.2536,2,1
4,20,0,21.6,118,0,1.7897,2,1
5,20,0,70,62,1,1.5357,2,1
6,20,0,50,118,1,2.464,2,1
7,20,0,21.6,6,0,2.7226,2,1
8,20,0,26.6,2,1,2.346,2,1
9,20,0,70,118,1,2.3905,2,1
10,20,0,46,2,1,1.2596,2,1
11,20,0,56,15,1,1.4248,2,1
12,20,0,70,2,1,1.4508,2,1
13,20,0,26.6,29,1,2.1198,2,1
14,20,0,34,2,1,1.5239,2,1
15,20,0,36.6,29,1,1.9441,2,1
16,20,0,76,29,1,1.0606,2,1
17,20,0,24,6,1,2.2553,2,1
18,20,0,30,29,1,1.4382,2,1
19,20,0,56,118,1,4.0673,2,1
20,20,0,34,6,1,2.3358,2,1
21,20,0,46,15,1,0.9891,2,1
22,20,0,41.4,6,1,1.12,2,1
23,20,0,30,118,1,1.8978,2,1
24,20,0,50,15,1,1.0348,2,1
25,20,0,36.6,2,1,0.8196,2,1
26,20,0,29.4,118,1,2.048,2,1
27,20,0,24,15,1,4.5183,2,1
28,20,0,24,29,0,5.1422,2,1
29,20,0,36.6,15,1,0.8561,2,1
30,20,0,70,29,1,1.0748,2,1
31,20,0,36.6,6,1,1.2234,2,1
32,20,0,41.4,15,1,1.2388,2,1
33,20,0,62,62,1,0.6759,2,1
34,20,0,20.4,2,0,1.1937,2,1
35,20,0,62,2,1,1.1395,2,1
36,20,0,21.6,15,0,2.0567,2,1
37,20,0,29.4,15,1,3.2044,2,1
38,20,0,46,118,1,3.1528,2,1
39,20,0,29.4,2,1,3.056,2,1
40,20,0,26.6,6,1,2.6803,2,1
41,20,0,24,62,0,1.5195,2,1
42,20,0,20.4,62,0,1.6084,2,1
43,20,0,30,6,1,1.6293,2,1
44,20,0,24,6,1,1.1981,2,1
45,20,0,20.4,6,0,1.3677,2,1
46,20,0,50,62,1,1.3259,2,1
47,20,0,30,15,1,1.3702,2,1
48,20,0,20.4,118,0,1.0021,2,1
49,20,0,29.4,62,1,1.925,2,1
50,20,0,41.4,2,1,1.0851,2,1
51,20,0,24,2,1,1.7634,2,1
52,20,0,34,118,1,2.7938,2,1
53,20,0,62,6,1,0.7855,2,1
54,20,0,50,2,1,0.5739,2,1
55,20,0,30,2,1,1.179,2,1
56,20,0,24,15,1,1.0617,2,1
57,20,0,41.4,62,1,0.9577,2,1
58,20,0,62,29,1,1.0897,2,1
59,20,0,46,29,1,1.5252,2,1
60,20,0,41.4,118,1,4.1172,2,1
61,20,0,46,6,1,0.9202,2,1
62,20,0,76,15,1,3.8314,2,1
63,20,0,24,118,0,5.0253,2,1
64,20,0,34,62,1,1.2082,2,1
65,20,0,62,118,1,2.5382,2,1
66,20,0,30,62,1,2.1599,2,1
67,20,0,20.4,29,0,0.8594,2,1
68,20,0,46,62,1,1.896,2,1
69,20,0,24,62,1,1.27,2,1
70,20,0,70,6,1,1.2462,2,1
71,20,0,56,29,1,0.9105,2,1
72,20,0,20.4,15,0,1.0771,2,1
73,20,0,41.4,29,1,4.8884,2,1
74,20,0,76,6,1,0.8211,2,1
75,20,0,70,15,1,0.6393,2,1
76,20,0,50,6,1,1.1333,2,1
77,20,0,24,29,1,3.4749,2,1
78,20,0,29.4,29,1,1.2572,2,1
79,20,0,21.6,29,0,3.5009,2,1
80,20,0,24,118,0,1.2013,2,1
81,20,0,56,62,1,3.0273,2,1
82,20,0,26.6,15,1,2.308,2,1
83,20,0,36.6,118,1,5.5294,2,1
84,20,0,34,15,1,2.2747,2,1
85,20,0,36.6,62,1,1.2889,2,1
86,20,0,56,6,1,0.8505,2,1
87,20,0,26.6,62,0,1.3419,2,1
88,20,0,29.4,6,1,3.8777,2,1
89,20,0,76,118,1,1.214,2,1
90,20,0,62,15,1,1.1586,2,1
91,20,0,56,2,1,1.0015,2,1
92,20,0,21.6,62,1,3.6797,2,1
93,20,0,50,29,1,0.5599,2,1
94,20,0,24,2,1,1.3135,2,1
95,20,0,21.6,2,1,1.7966,2,1
96,20,0,76,62,1,0.7706,2,1
1,20,0,77,122,1,2.778,10,1
2,20,0,29,31,1,2.3549,10,1
3,20,0,61,58,1,1.3332,10,1
4,20,0,33,1,1,1.4568,10,1
5,20,0,31,1,1,1.6473,10,1
6,20,0,21,58,0,2.4761,10,1
7,20,0,29,1,1,1.2174,10,1
8,20,0,69,58,1,1.5815,10,1
9,20,0,77,1,1,1.0463,10,1
10,20,0,21,13,0,1.8359,10,1
11,20,0,33,7,1,1.9255,10,1
12,20,0,37,122,1,1.4011,10,1
13,20,0,57,58,1,1.2453,10,1
14,20,0,29,122,1,1.8695,10,1
15,20,0,57,13,1,3.3317,10,1
16,20,0,21,1,0,1.0244,10,1
17,20,0,25,13,1,3.3448,10,1
18,20,0,21,1,1,1.9539,10,1
19,20,0,51,7,1,1.4341,10,1
20,20,0,61,1,1,0.8715,10,1
21,20,0,29,13,1,1.305,10,1
22,20,0,45,13,1,1.1289,10,1
23,20,0,21,31,0,2.4893,10,1
24,20,0,31,13,1,1.1045,10,1
25,20,0,57,1,1,1.003,10,1
26,20,0,57,122,1,1.5097,10,1
27,20,0,23,7,1,2.2731,10,1
28,20,0,61,7,1,0.9463,10,1
29,20,0,77,31,1,1.0491,10,1
30,20,0,37,58,1,1.8908,10,1
31,20,0,37,1,1,1.9592,10,1
32,20,0,27,122,1,1.6502,10,1
33,20,0,31,7,1,1.6168,10,1
34,20,0,37,13,1,0.9574,10,1
35,20,0,69,13,1,0.9963,10,1
36,20,0,23,31,0,4.0122,10,1
37,20,0,21,122,0,1.4208,10,1
38,20,0,41,31,1,1.9125,10,1
39,20,0,25,58,1,4.2629,10,1
40,20,0,23,58,0,3.9687,10,1
41,20,0,31,31,1,1.4116,10,1
42,20,0,51,1,1,1.2749,10,1
43,20,0,37,7,1,1.4996,10,1
44,20,0,29,58,1,1.5277,10,1
45,20,0,45,31,1,1.1231,10,1
46,20,0,25,122,1,2.0609,10,1
47,20,0,69,7,1,0.8807,10,1
48,20,0,57,31,1,0.9875,10,1
49,20,0,29,7,1,1.3153,10,1
50,20,0,51,13,1,1.1243,10,1
51,20,0,23,122,0,1.9271,10,1
52,20,0,77,7,1,1.0725,10,1
53,20,0,27,31,1,1.2362,10,1
54,20,0,21,13,0,1.7356,10,1
55,20,0,41,58,1,0.8482,10,1
56,20,0,33,122,1,2.1002,10,1
57,20,0,41,1,1,0.8315,10,1
58,20,0,27,7,1,1.1397,10,1
59,20,0,25,31,1,1.8416,10,1
60,20,0,31,58,1,4.166,10,1
61,20,0,69,31,1,2.4471,10,1
62,20,0,45,1,1,1.6932,10,1
63,20,0,25,1,1,1.0158,10,1
64,20,0,51,122,1,1.22,10,1
65,20,0,41,7,1,2.6701,10,1
66,20,0,27,1,1,1.2093,10,1
67,20,0,33,58,1,1.1583,10,1
68,20,0,21,7,1,1.0152,10,1
69,20,0,77,13,1,0.9001,10,1
70,20,0,69,122,1,1.3971,10,1
71,20,0,61,122,1,0.7349,10,1
72,20,0,41,13,1,1.0873,10,1
73,20,0,21,7,1,3.0117,10,1
74,20,0,45,7,1,1.4089,10,1
75,20,0,33,13,1,0.9605,10,1
76,20,0,21,122,0,2.1183,10,1
77,20,0,27,13,1,0.9214,10,1
78,20,0,61,31,1,0.9928,10,1
79,20,0,61,13,1,1.1883,10,1
80,20,0,57,7,1,1.6029,10,1
81,20,0,77,58,1,0.9234,10,1
82,20,0,45,122,1,2.5102,10,1
83,20,0,23,13,1,1.366,10,1
84,20,0,31,122,1,0.8494,10,1
85,20,0,23,1,1,1.3706,10,1
86,20,0,25,7,1,1.1992,10,1
87,20,0,51,31,1,1.013,10,1
88,20,0,69,1,1,0.981,10,1
89,20,0,33,31,1,0.9581,10,1
90,20,0,27,58,1,1.523,10,1
91,20,0,41,122,1,0.932,10,1
92,20,0,21,31,0,3.5494,10,1
93,20,0,51,58,1,1.1933,10,1
94,20,0,37,31,1,2.1895,10,1
95,20,0,21,58,0,2.3213,10,1
96,20,0,45,58,1,1.1779,10,1
1,20,0,26.6,15,1,2.9355,18,1
2,20,0,24,15,0,2.4395,18,1
3,20,0,29.4,15,1,1.8137,18,1
4,20,0,20.4,118,0,1.4511,18,1
5,20,0,26.6,29,0,2.0853,18,1
6,20,0,26.6,2,1,1.35,18,1
7,20,0,20.4,15,0,1.6195,18,1
8,20,0,50,15,1,1.6139,18,1
9,20,0,24,29,0,2.6174,18,1
10,20,0,41.4,118,1,2.3469,18,1
11,20,0,36.6,62,1,1.8567,18,1
12,20,0,50,2,1,1.4757,18,1
13,20,0,76,62,1,1.4263,18,1
14,20,0,34,2,1,1.2676,18,1
15,20,0,70,118,1,2.4133,18,1
16,20,0,41.4,62,1,2.6939,18,1
17,20,0,46,6,1,1.4067,18,1
18,20,0,29.4,62,0,3.3761,18,1
19,20,0,76,2,1,1.8033,18,1
20,20,0,56,62,1,1.7446,18,1
21,20,0,56,15,1,1.3946,18,1
22,20,0,29.4,29,1,2.3726,18,1
23,20,0,36.6,15,1,1.7757,18,1
24,20,0,20.4,29,0,2.259,18,1
25,20,0,62,118,1,2.8136,18,1
26,20,0,36.6,6,1,2.1743,18,1
27,20,0,20.4,62,0,1.4476,18,1
28,20,0,50,6,1,1.4784,18,1
29,20,0,30,6,1,1.2259,18,1
30,20,0,70,15,1,2.5369,18,1
31,20,0,46,15,1,0.9996,18,1
32,20,0,50,62,1,2.4057,18,1
33,20,0,20.4,6,0,1.7421,18,1
34,20,0,56,2,1,1.3306,18,1
35,20,0,70,29,1,1.3387,18,1
36,20,0,24,29,0,1.8424,18,1
37,20,0,24,118,0,1.9787,18,1
38,20,0,24,6,1,1.383,18,1
39,20,0,21.6,2,1,1.5584,18,1
40,20,0,21.6,62,0,1.6675,18,1
41,20,0,62,62,1,1.6262,18,1
42,20,0,70,2,1,1.3945,18,1
43,20,0,76,15,1,1.231,18,1
44,20,0,30,2,1,1.0923,18,1
45,20,0,46,29,1,1.3182,18,1
46,20,0,24,62,1,2.6258,18,1
47,20,0,46,118,0,2.1124,18,1
48,20,0,24,2,1,1.6802,18,1
49,20,0,24,118,0,1.9283,18,1
50,20,0,56,118,1,2.4349,18,1
51,20,0,62,29,1,1.8646,18,1
52,20,0,41.4,2,1,1.3744,18,1
53,20,0,46,62,1,2.618,18,1
54,20,0,76,6,1,1.3148,18,1
55,20,0,46,2,1,1.2425,18,1
56,20,0,34,62,0,1.9241,18,1
57,20,0,36.6,2,1,1.5557,18,1
58,20,0,21.6,6,1,1.7455,18,1
59,20,0,41.4,29,1,2.2088,18,1
60,20,0,26.6,6,1,2.2253,18,1
61,20,0,29.4,2,1,1.8166,18,1
62,20,0,30,15,1,1.3117,18,1
63,20,0,21.6,15,0,2.0192,18,1
64,20,0,62,6,1,2.2688,18,1
65,20,0,26.6,118,0,1.5259,18,1
66,20,0,41.4,15,1,1.6192,18,1
67,20,0,34,118,0,1.6405,18,1
68,20,0,36.6,118,0,1.5178,18,1
69,20,0,50,118,1,1.4156,18,1
70,20,0,30,62,0,2.1342,18,1
71,20,0,76,118,1,2.9641,18,1
72,20,0,34,6,1,1.5137,18,1
73,20,0,34,29,1,2.5859,18,1
74,20,0,36.6,29,1,1.9477,18,1
75,20,0,24,15,0,2.3719,18,1
76,20,0,50,29,1,1.6734,18,1
77,20,0,29.4,6,1,1.4689,18,1
78,20,0,21.6,118,0,1.4137,18,1
79,20,0,20.4,2,0,1.5237,18,1
80,20,0,56,29,1,1.9254,18,1
81,20,0,62,2,1,1.0022,18,1
82,20,0,24,62,0,1.8779,18,1
83,20,0,76,29,1,1.1719,18,1
84,20,0,30,29,0,1.453,18,1
85,20,0,70,62,1,2.3913,18,1
86,20,0,29.4,118,0,2.3984,18,1
87,20,0,34,15,1,2.4282,18,1
88,20,0,30,118,0,2.6028,18,1
89,20,0,24,2,1,1.5201,18,1
90,20,0,62,15,1,1.8055,18,1
91,20,0,26.6,62,0,1.5457,18,1
92,20,0,24,6,1,1.7567,18,1
93,20,0,70,6,1,1.3097,18,1
94,20,0,41.4,6,1,1.1138,18,1
95,20,0,56,6,1,1.1967,18,1
96,20,0,21.6,29,0,1.4625,18,1
1,20,0,21.6,62,0,2.0512,6,1
2,20,0,76,62,1,1.8455,6,1
3,20,0,70,29,1,1.6529,6,1
4,20,0,56,2,1,2.1013,6,1
5,20,0,29.4,62,0,1.8384,6,1
6,20,0,76,6,1,1.7677,6,1
7,20,0,76,15,1,1.3523,6,1
8,20,0,56,15,1,1.7982,6,1
9,20,0,50,6,1,1.3994,6,1
10,20,0,46,118,0,1.2592,6,1
11,20,0,36.6,2,1,2.3007,6,1
12,20,0,56,62,1,2.5631,6,1
13,20,0,50,2,1,1.3977,6,1
14,20,0,26.6,6,0,1.2712,6,1
15,20,0,56,29,1,1.3056,6,1
16,20,0,36.6,118,0,1.2514,6,1
17,20,0,30,118,0,1.5089,6,1
18,20,0,56,6,1,0.8571,6,1
19,20,0,62,29,1,0.981,6,1
20,20,0,41.4,62,1,1.123,6,1
21,20,0,30,29,1,1.5103,6,1
22,20,0,36.6,6,1,1.0586,6,1
23,20,0,26.6,2,1,1.4437,6,1
24,20,0,21.6,2,1,2.1629,6,1
25,20,0,21.6,29,0,1.1704,6,1
26,20,0,24,29,0,1.4789,6,1
27,20,0,20.4,6,0,1.4817,6,1
28,20,0,30,6,1,0.9894,6,1
29,20,0,26.6,62,0,1.1759,6,1
30,20,0,20.4,15,0,1.4043,6,1
31,20,0,46,62,1,1.1781,6,1
32,20,0,46,15,1,1.0132,6,1
33,20,0,50,62,1,1.3947,6,1
34,20,0,21.6,6,0,1.71,6,1
35,20,0,29.4,15,1,1.1538,6,1
36,20,0,30,15,1,0.9972,6,1
37,20,0,20.4,62,0,1.2792,6,1
38,20,0,24,62,1,1.3362,6,1
39,20,0,41.4,15,1,1.5581,6,1
40,20,0,26.6,118,0,1.4524,6,1
41,20,0,62,6,1,1.3734,6,1
42,20,0,76,29,1,1.1285,6,1
43,20,0,30,2,1,1.1311,6,1
44,20,0,29.4,6,1,1.0418,6,1
45,20,0,24,15,1,1.5157,6,1
46,20,0,76,118,0,1.3578,6,1
47,20,0,76,2,1,1.669,6,1
48,20,0,24,6,1,1.1888,6,1
49,20,0,24,118,0,1.2534,6,1
50,20,0,24,2,1,1.0922,6,1
51,20,0,41.4,6,1,1.134,6,1
52,20,0,21.6,118,0,1.208,6,1
53,20,0,62,118,0,1.3215,6,1
54,20,0,24,6,1,0.9419,6,1
55,20,0,20.4,2,0,1.284,6,1
56,20,0,34,29,1,1.4653,6,1
57,20,0,24,15,1,2.0024,6,1
58,20,0,62,2,1,1.2173,6,1
59,20,0,70,62,1,1.5795,6,1
60,20,0,36.6,62,0,1.7253,6,1
61,20,0,26.6,15,1,1.2697,6,1
62,20,0,46,6,1,2.5724,6,1
63,20,0,56,118,0,1.8487,6,1
64,20,0,20.4,118,0,1.3168,6,1
65,20,0,34,118,0,1.2328,6,1
66,20,0,36.6,29,1,1.0667,6,1
67,20,0,62,62,1,1.0658,6,1
68,20,0,70,15,1,0.8242,6,1
69,20,0,24,2,1,1.4108,6,1
70,20,0,46,29,1,1.3024,6,1
71,20,0,34,6,1,1.0728,6,1
72,20,0,24,29,0,1.515,6,1
73,20,0,50,29,1,1.6186,6,1
74,20,0,20.4,29,0,1.5058,6,1
75,20,0,36.6,15,1,1.4327,6,1
76,20,0,50,118,0,3.0435,6,1
77,20,0,41.4,29,1,1.5799,6,1
78,20,0,34,62,1,3.1677,6,1
79,20,0,70,2,1,0.8258,6,1
80,20,0,29.4,29,0,1.4449,6,1
81,20,0,24,62,0,1.0226,6,1
82,20,0,29.4,2,1,2.1472,6,1
83,20,0,24,118,0,1.3877,6,1
84,20,0,62,15,1,0.7776,6,1
85,20,0,41.4,2,1,0.9399,6,1
86,20,0,50,15,1,1.1929,6,1
87,20,0,46,2,1,1.561,6,1
88,20,0,21.6,15,0,1.3361,6,1
89,20,0,26.6,29,0,1.5087,6,1
90,20,0,41.4,118,1,0.9392,6,1
91,20,0,70,6,1,0.8312,6,1
92,20,0,30,62,0,1.5769,6,1
93,20,0,70,118,1,2.1953,6,1
94,20,0,34,15,1,1.7094,6,1
95,20,0,34,2,1,1.2106,6,1
96,20,0,29.4,118,0,2.9368,6,1
1,20,0,27.4,30,0,6.637,14,1
2,20,0,40.6,120,1,3.8569,14,1
3,20,0,32,30,1,3.421,14,1
4,20,0,36.2,120,1,3.7268,14,1
5,20,0,23,120,0,2.2051,14,1
6,20,0,35,8,1,2.2943,14,1
7,20,0,23,30,0,2.5177,14,1
8,20,0,75,14,1,2.1423,14,1
9,20,0,21.6,3,0,3.8224,14,1
10,20,0,20.6,8,0,2.3942,14,1
11,20,0,21.6,30,0,2.0763,14,1
12,20,0,23,8,0,2.6223,14,1
13,20,0,36.2,60,1,3.9815,14,1
14,20,0,25,60,0,1.9801,14,1
15,20,0,71,60,1,2.9946,14,1
16,20,0,35,30,1,2.9591,14,1
17,20,0,28.6,14,1,3.4824,14,1
18,20,0,58,8,1,1.9546,14,1
19,20,0,36.2,30,1,5.2523,14,1
20,20,0,21.6,120,0,1.5584,14,1
21,20,0,28.6,30,1,3.3885,14,1
22,20,0,75,8,1,2.4121,14,1
23,20,0,21.6,14,0,2.1195,14,1
24,20,0,32,3,1,1.8067,14,1
25,20,0,27.4,120,0,3.5348,14,1
26,20,0,35,3,1,1.6061,14,1
27,20,0,49,14,1,3.6206,14,1
28,20,0,25,14,1,4.8046,14,1
29,20,0,20.6,3,0,2.3253,14,1
30,20,0,47,120,1,5.1819,14,1
31,20,0,35,60,1,4.4494,14,1
32,20,0,47,30,1,1.4985,14,1
33,20,0,49,120,1,2.6259,14,1
34,20,0,23,3,1,2.84,14,1
35,20,0,58,120,1,3.3018,14,1
36,20,0,58,14,1,1.5084,14,1
37,20,0,49,8,1,2.0986,14,1
38,20,0,60,14,1,1.4316,14,1
39,20,0,25,30,1,4.9427,14,1
40,20,0,71,3,1,2.1622,14,1
41,20,0,25,8,1,1.7712,14,1
42,20,0,21.6,8,0,2.0753,14,1
43,20,0,40.6,8,1,1.4332,14,1
44,20,0,27.4,8,1,2.2155,14,1
45,20,0,71,8,1,1.9306,14,1
46,20,0,60,30,1,2.2695,14,1
47,20,0,20.6,60,0,2.4305,14,1
48,20,0,47,8,1,3.6194,14,1
49,20,0,47,60,1,1.9645,14,1
50,20,0,75,60,1,1.2423,14,1
51,20,0,35,120,1,3.1969,14,1
52,20,0,25,120,0,2.7251,14,1
53,20,0,40.6,30,1,3.0432,14,1
54,20,0,32,60,1,3.5659,14,1
55,20,0,23,14,0,2.3594,14,1
56,20,0,25,3,1,2.5674,14,1
57,20,0,20.6,30,0,1.8076,14,1
58,20,0,71,30,1,1.744,14,1
59,20,0,20.6,14,0,1.7314,14,1
60,20,0,23,60,0,1.5227,14,1
61,20,0,32,8,1,1.4264,14,1
62,20,0,58,60,1,1.2048,14,1
63,20,0,20.6,120,0,1.7702,14,1
64,20,0,36.2,3,1,1.813,14,1
65,20,0,40.6,14,1,1.2618,14,1
66,20,0,27.4,3,1,2.6023,14,1
67,20,0,40.6,3,1,1.2801,14,1
68,20,0,36.2,8,1,2.8481,14,1
69,20,0,58,30,1,2.2733,14,1
70,20,0,58,3,1,1.2967,14,1
71,20,0,75,120,1,1.9365,14,1
72,20,0,27.4,14,1,1.993,14,1
73,20,0,49,30,1,1.2241,14,1
74,20,0,47,14,1,1.5934,14,1
75,20,0,60,60,1,3.1795,14,1
76,20,0,28.6,8,1,2.3215,14,1
77,20,0,71,14,1,1.5253,14,1
78,20,0,28.6,60,0,6.4983,14,1
79,20,0,47,3,1,1.942,14,1
80,20,0,28.6,120,0,1.8504,14,1
81,20,0,60,8,1,1.9165,14,1
82,20,0,75,3,1,1.5951,14,1
83,20,0,49,60,1,1.5729,14,1
84,20,0,49,3,1,1.7447,14,1
85,20,0,21.6,60,0,1.4766,14,1
86,20,0,28.6,3,1,1.6539,14,1
87,20,0,75,30,1,1.422,14,1
88,20,0,36.2,14,1,1.474,14,1
89,20,0,35,14,1,1.6113,14,1
90,20,0,60,3,1,1.3088,14,1
91,20,0,60,120,1,2.8645,14,1
92,20,0,40.6,60,1,3.2496,14,1
93,20,0,27.4,60,0,1.9093,14,1
94,20,0,32,14,1,1.8285,14,1
95,20,0,32,120,0,3.2554,14,1
96,20,0,71,120,1,2.7241,14,1
1,20,0,57,58,0,2.4931,22,1
2,20,0,23,1,0,2.342,22,1
3,20,0,31,1,1,2.1978,22,1
4,20,0,61,7,1,2.9992,22,1
5,20,0,27,122,0,2.2529,22,1
6,20,0,31,58,0,1.5051,22,1
7,20,0,33,122,0,2.0153,22,1
8,20,0,25,31,0,1.7058,22,1
9,20,0,27,13,0,1.1988,22,1
10,20,0,31,31,0,2.0119,22,1
11,20,0,57,122,0,1.444,22,1
12,20,0,25,58,0,1.4238,22,1
13,20,0,31,7,0,1.1831,22,1
14,20,0,23,13,0,2.1689,22,1
15,20,0,61,1,1,1.8811,22,1
16,20,0,37,122,0,2.5098,22,1
17,20,0,69,13,0,1.1603,22,1
18,20,0,23,122,0,1.4437,22,1
19,20,0,69,7,0,1.3886,22,1
20,20,0,29,122,0,1.6555,22,1
21,20,0,61,13,0,1.1022,22,1
22,20,0,29,13,0,1.0495,22,1
23,20,0,57,31,0,1.3029,22,1
24,20,0,41,122,0,1.2013,22,1
25,20,0,57,13,0,1.504,22,1
26,20,0,45,7,0,1.2776,22,1
27,20,0,33,31,0,1.669,22,1
28,20,0,25,13,0,1.2406,22,1
29,20,0,41,58,0,1.3248,22,1
30,20,0,69,58,0,1.525,22,1
31,20,0,31,13,0,0.9663,22,1
32,20,0,51,1,0,1.5132,22,1
33,20,0,27,1,1,1.4529,22,1
34,20,0,77,1,1,1.8618,22,1
35,20,0,51,122,0,1.613,22,1
36,20,0,33,13,0,1.363,22,1
37,20,0,37,1,1,1.9297,22,1
38,20,0,27,7,0,1.6268,22,1
39,20,0,69,1,1,2.3554,22,1
40,20,0,77,58,0,1.1598,22,1
41,20,0,37,31,0,1.3647,22,1
42,20,0,51,7,0,1.5206,22,1
43,20,0,27,31,0,1.2434,22,1
44,20,0,45,1,1,1.7015,22,1
45,20,0,37,7,0,1.0699,22,1
46,20,0,27,58,0,0.8934,22,1
47,20,0,29,1,1,1.1968,22,1
48,20,0,37,13,0,1.2792,22,1
49,20,0,41,1,1,1.0706,22,1
50,20,0,51,13,0,1.2548,22,1
51,20,0,25,1,1,2.4117,22,1
52,20,0,45,58,0,1.2695,22,1
53,20,0,25,122,0,1.9125,22,1
54,20,0,21,1,0,2.3466,22,1
55,20,0,21,7,0,1.7939,22,1
56,20,0,69,122,0,1.2018,22,1
57,20,0,21,13,0,1.1217,22,1
58,20,0,23,58,0,1.6524,22,1
59,20,0,21,122,0,0.9245,22,1
60,20,0,29,31,0,1.0082,22,1
61,20,0,33,1,1,0.9813,22,1
62,20,0,21,122,0,1.018,22,1
63,20,0,25,7,0,2.9028,22,1
64,20,0,41,7,0,1.4629,22,1
65,20,0,57,7,0,1.2793,22,1
66,20,0,29,7,0,1.061,22,1
67,20,0,57,1,1,1.3853,22,1
68,20,0,21,58,0,2.0423,22,1
69,20,0,41,13,0,1.1629,22,1
70,20,0,77,13,0,0.992,22,1
71,20,0,41,31,0,1.1554,22,1
72,20,0,77,31,0,0.9976,22,1
73,20,0,31,122,0,1.0262,22,1
74,20,0,33,58,0,1.1903,22,1
75,20,0,45,122,0,1.1582,22,1
76,20,0,23,31,0,2.1424,22,1
77,20,0,69,31,0,1.5461,22,1
78,20,0,23,7,0,1.1537,22,1
79,20,0,37,58,0,1.0123,22,1
80,20,0,77,7,0,1.6173,22,1
81,20,0,21,7,0,1.3941,22,1
82,20,0,21,1,0,2.0264,22,1
83,20,0,45,31,0,1.3849,22,1
84,20,0,61,31,0,1.1809,22,1
85,20,0,21,13,0,1.6379,22,1
86,20,0,51,58,0,1.3473,22,1
87,20,0,29,58,0,0.9708,22,1
88,20,0,77,122,0,1.4637,22,1
89,20,0,61,58,0,1.9147,22,1
90,20,0,21,58,0,1.738,22,1
91,20,0,21,31,0,1.3954,22,1
92,20,0,51,31,0,1.1284,22,1
93,20,0,21,31,0,1.2724,22,1
94,20,0,61,122,0,1.2997,22,1
95,20,0,33,7,0,1.8235,22,1
96,20,0,45,13,0,1.2146,22,1
1,20,0,25,58,0,1.9271,30,1
2,20,0,31,1,1,2.4326,30,1
3,20,0,25,13,0,1.5215,30,1
4,20,0,25,31,0,2.098,30,1
5,20,0,37,31,0,2.3599,30,1
6,20,0,51,58,0,1.4142,30,1
7,20,0,51,122,0,1.2903,30,1
8,20,0,41,58,0,1.8356,30,1
9,20,0,21,7,0,1.7694,30,1
10,20,0,29,13,0,1.2592,30,1
11,20,0,25,1,1,1.7605,30,1
12,20,0,57,58,0,1.9283,30,1
13,20,0,51,13,1,2.2865,30,1
14,20,0,29,122,0,1.6476,30,1
15,20,0,61,1,1,1.6907,30,1
16,20,0,37,13,1,1.6736,30,1
17,20,0,27,13,0,2.4755,30,1
18,20,0,41,31,0,3.2147,30,1
19,20,0,29,1,1,1.0522,30,1
20,20,0,33,122,0,1.3398,30,1
21,20,0,61,58,0,1.9222,30,1
22,20,0,27,31,0,1.9488,30,1
23,20,0,25,122,0,1.326,30,1
24,20,0,33,7,1,1.8752,30,1
25,20,0,21,13,0,1.4295,30,1
26,20,0,51,7,1,1.6071,30,1
27,20,0,33,13,0,3.2763,30,1
28,20,0,27,7,1,1.82,30,1
29,20,0,61,122,0,1.0357,30,1
30,20,0,41,13,0,1.3365,30,1
31,20,0,61,7,1,1.3435,30,1
32,20,0,45,122,0,1.448,30,1
33,20,0,37,122,0,2.2701,30,1
34,20,0,57,1,1,1.6806,30,1
35,20,0,57,31,1,1.4639,30,1
36,20,0,69,122,0,1.6258,30,1
37,20,0,27,122,0,1.5121,30,1
38,20,0,29,7,1,1.0777,30,1
39,20,0,21,13,0,1.8245,30,1
40,20,0,69,31,0,0.9351,30,1
41,20,0,31,122,0,1.036,30,1
42,20,0,45,7,0,1.3685,30,1
43,20,0,57,13,1,1.2723,30,1
44,20,0,31,31,0,1.8039,30,1
45,20,0,21,122,0,1.7207,30,1
46,20,0,33,31,0,2.464,30,1
47,20,0,45,1,1,2.7728,30,1
48,20,0,31,58,0,3.4829,30,1
49,20,0,57,122,0,1.5086,30,1
50,20,0,33,1,0,1.8029,30,1
51,20,0,31,13,1,3.0396,30,1
52,20,0,23,122,0,1.6322,30,1
53,20,0,45,58,0,2.505,30,1
54,20,0,27,1,1,1.8985,30,1
55,20,0,31,7,1,2.2942,30,1
56,20,0,77,122,0,1.4739,30,1
57,20,0,29,31,0,1.5197,30,1
58,20,0,21,31,0,2.3961,30,1
59,20,0,21,1,0,1.2629,30,1
60,20,0,27,58,0,1.8536,30,1
61,20,0,23,7,0,3.1657,30,1
62,20,0,45,31,1,1.8502,30,1
63,20,0,51,1,1,1.3716,30,1
64,20,0,37,1,1,1.507,30,1
65,20,0,77,31,1,2.1682,30,1
66,20,0,21,58,0,1.6781,30,1
67,20,0,69,58,0,1.8929,30,1
68,20,0,23,1,1,2.4411,30,1
69,20,0,23,31,0,1.8135,30,1
70,20,0,77,58,0,1.8889,30,1
71,20,0,61,31,1,1.9886,30,1
72,20,0,51,31,1,2.1586,30,1
73,20,0,77,1,1,1.7392,30,1
74,20,0,41,122,0,1.4984,30,1
75,20,0,45,13,1,2.1844,30,1
76,20,0,69,13,1,1.125,30,1
77,20,0,77,13,1,1.7748,30,1
78,20,0,29,58,0,1.0549,30,1
79,20,0,77,7,1,1.3921,30,1
80,20,0,57,7,1,1.3399,30,1
81,20,0,37,7,1,1.3807,30,1
82,20,0,69,1,1,1.0216,30,1
83,20,0,21,1,1,1.6478,30,1
84,20,0,37,58,0,1.8528,30,1
85,20,0,23,13,0,2.2502,30,1
86,20,0,41,1,1,1.4162,30,1
87,20,0,41,7,1,1.3765,30,1
88,20,0,69,7,1,1.9108,30,1
89,20,0,21,122,0,1.4564,30,1
90,20,0,33,58,0,1.8128,30,1
91,20,0,21,7,0,2.2159,30,1
92,20,0,21,31,0,1.4122,30,1
93,20,0,21,58,0,1.2628,30,1
94,20,0,25,7,1,2.016,30,1
95,20,0,23,58,0,1.1518,30,1
96,20,0,61,13,1,1.5869,30,1
1,20,0,69,7,1,14.2097,16,1
2,20,0,37,122,0,2.2761,16,1
3,20,0,69,122,0,1.1125,16,1
4,20,0,41,7,1,1.3963,16,1
5,20,0,51,31,0,1.1851,16,1
6,20,0,29,7,1,2.2274,16,1
7,20,0,77,122,0,1.1754,16,1
8,20,0,41,58,0,1.0699,16,1
9,20,0,29,13,0,1.4951,16,1
10,20,0,33,7,1,1.5384,16,1
11,20,0,69,1,0,1.2092,16,1
12,20,0,45,7,1,1.0325,16,1
13,20,0,57,13,0,1.6489,16,1
14,20,0,37,7,1,0.981,16,1
15,20,0,57,31,0,1.2268,16,1
16,20,0,29,31,0,1.2231,16,1
17,20,0,41,13,0,1.4092,16,1
18,20,0,23,7,0,2.1124,16,1
19,20,0,27,7,0,1.6877,16,1
20,20,0,21,58,0,2.0643,16,1
21,20,0,57,1,1,1.4425,16,1
22,20,0,21,13,0,1.4899,16,1
23,20,0,23,13,0,1.0898,16,1
24,20,0,51,58,0,0.9014,16,1
25,20,0,25,31,0,0.9538,16,1
26,20,0,25,7,0,0.8888,16,1
27,20,0,37,1,1,0.8844,16,1
28,20,0,23,1,0,1.5585,16,1
29,20,0,31,1,0,0.9114,16,1
30,20,0,29,1,1,1.713,16,1
31,20,0,23,122,0,1.3141,16,1
32,20,0,37,31,0,1.3052,16,1
33,20,0,21,58,0,1.1621,16,1
34,20,0,21,31,0,1.4812,16,1
35,20,0,37,13,0,2.1139,16,1
36,20,0,23,58,0,0.9488,16,1
37,20,0,31,58,0,1.4321,16,1
38,20,0,33,58,0,1.141,16,1
39,20,0,61,58,0,1.2922,16,1
40,20,0,57,7,1,1.2016,16,1
41,20,0,61,122,0,0.9518,16,1
42,20,0,21,7,1,1.7321,16,1
43,20,0,31,13,0,1.4608,16,1
44,20,0,77,13,0,1.8458,16,1
45,20,0,61,1,0,0.9474,16,1
46,20,0,33,31,0,1.3737,16,1
47,20,0,37,58,0,1.1478,16,1
48,20,0,45,31,0,1.2692,16,1
49,20,0,33,1,1,1.1799,16,1
50,20,0,69,58,0,0.8289,16,1
51,20,0,25,13,0,0.6773,16,1
52,20,0,21,1,0,2.5442,16,1
53,20,0,77,58,0,1.4002,16,1
54,20,0,61,13,0,1.2742,16,1
55,20,0,69,31,0,1.3032,16,1
56,20,0,23,31,0,0.9018,16,1
57,20,0,51,122,0,1.054,16,1
58,20,0,29,58,0,1.6638,16,1
59,20,0,21,1,0,1.8454,16,1
60,20,0,45,1,1,1.9192,16,1
61,20,0,61,31,0,1.0891,16,1
62,20,0,27,13,0,1.0512,16,1
63,20,0,33,122,0,0.954,16,1
64,20,0,31,7,1,1.5625,16,1
65,20,0,61,7,1,1.5671,16,1
66,20,0,51,7,1,1.7998,16,1
67,20,0,27,122,0,1.0878,16,1
68,20,0,45,58,0,1.1634,16,1
69,20,0,29,122,0,1.6011,16,1
70,20,0,51,13,0,1.2385,16,1
71,20,0,21,31,0,0.9221,16,1
72,20,0,25,58,0,0.8635,16,1
73,20,0,41,122,0,0.7398,16,1
74,20,0,25,122,0,0.5874,16,1
75,20,0,21,13,0,1.1331,16,1
76,20,0,31,122,0,0.8025,16,1
77,20,0,27,1,0,4.4383,16,1
78,20,0,41,1,1,1.3366,16,1
79,20,0,45,13,0,1.4714,16,1
80,20,0,21,7,0,1.587,16,1
81,20,0,51,1,1,1.2795,16,1
82,20,0,57,58,0,1.1669,16,1
83,20,0,27,31,0,1.4382,16,1
84,20,0,45,122,0,1.1144,16,1
85,20,0,77,31,0,1.4296,16,1
86,20,0,69,13,0,1.4999,16,1
87,20,0,25,1,0,1.4503,16,1
88,20,0,31,31,0,1.3436,16,1
89,20,0,77,7,1,1.3653,16,1
90,20,0,41,31,0,1.3101,16,1
91,20,0,21,122,0,1.0928,16,1
92,20,0,77,1,1,1.5884,16,1
93,20,0,33,13,0,1.3804,16,1
94,20,0,27,58,0,0.7724,16,1
95,20,0,21,122,0,1.2513,16,1
96,20,0,57,122,0,1.2669,16,1
1,20,0,27,58,0,3.1939,8,1
2,20,0,61,7,1,1.8426,8,1
3,20,0,37,13,0,3.0353,8,1
4,20,0,69,31,1,3.0069,8,1
5,20,0,37,1,1,2.4621,8,1
6,20,0,61,58,0,1.8609,8,1
7,20,0,77,1,1,1.7316,8,1
8,20,0,25,7,0,1.9538,8,1
9,20,0,69,58,0,1.8649,8,1
10,20,0,27,1,1,1.4888,8,1
11,20,0,33,7,0,1.522,8,1
12,20,0,21,122,0,2.3122,8,1
13,20,0,21,58,0,1.6818,8,1
14,20,0,27,13,0,1.4949,8,1
15,20,0,25,58,0,1.1289,8,1
16,20,0,21,7,0,1.1997,8,1
17,20,0,51,7,1,1.5208,8,1
18,20,0,77,58,0,1.2818,8,1
19,20,0,77,13,1,2.3974,8,1
20,20,0,23,13,0,1.5012,8,1
21,20,0,41,122,0,1.242,8,1
22,20,0,21,58,0,1.1325,8,1
23,20,0,31,31,0,1.1303,8,1
24,20,0,37,122,0,1.145,8,1
25,20,0,31,13,0,1.3558,8,1
26,20,0,69,122,0,2.7029,8,1
27,20,0,29,1,1,2.2312,8,1
28,20,0,51,1,1,1.4577,8,1
29,20,0,33,13,0,1.3575,8,1
30,20,0,31,1,1,1.4399,8,1
31,20,0,27,122,0,1.067,8,1
32,20,0,29,7,0,1.6667,8,1
33,20,0,31,58,0,2.004,8,1
34,20,0,33,58,0,1.2967,8,1
35,20,0,45,7,1,1.4783,8,1
36,20,0,45,13,0,2.1725,8,1
37,20,0,23,58,0,2.0682,8,1
38,20,0,31,122,0,1.1369,8,1
39,20,0,61,31,0,1.2366,8,1
40,20,0,33,122,0,2.2414,8,1
41,20,0,41,13,1,1.6595,8,1
42,20,0,27,7,1,1.5093,8,1
43,20,0,33,31,0,1.1831,8,1
44,20,0,37,31,0,1.3203,8,1
45,20,0,21,7,0,1.255,8,1
46,20,0,69,7,1,1.9767,8,1
47,20,0,25,31,0,1.4565,8,1
48,20,0,45,31,0,1.0285,8,1
49,20,0,29,58,0,1.5889,8,1
50,20,0,61,122,0,1.4354,8,1
51,20,0,25,1,1,3.2574,8,1
52,20,0,61,13,0,1.5246,8,1
53,20,0,57,1,1,3.3456,8,1
54,20,0,21,13,0,1.2489,8,1
55,20,0,33,1,1,1.3022,8,1
56,20,0,21,1,0,1.2326,8,1
57,20,0,57,31,0,3.076,8,1
58,20,0,29,13,0,2.6779,8,1
59,20,0,45,58,0,1.6821,8,1
60,20,0,29,122,0,1.496,8,1
61,20,0,23,7,0,1.2652,8,1
62,20,0,69,13,1,1.6444,8,1
63,20,0,23,31,0,1.1216,8,1
64,20,0,41,58,0,1.3727,8,1
65,20,0,61,1,1,1.3962,8,1
66,20,0,27,31,0,1.2302,8,1
67,20,0,23,122,0,2.2563,8,1
68,20,0,51,31,1,2.0966,8,1
69,20,0,21,1,0,0.9695,8,1
70,20,0,21,31,0,1.0518,8,1
71,20,0,69,1,1,1.0889,8,1
72,20,0,57,13,1,1.2006,8,1
73,20,0,41,1,1,1.2507,8,1
74,20,0,31,7,0,2.1404,8,1
75,20,0,77,31,1,1.6836,8,1
76,20,0,37,58,0,1.7935,8,1
77,20,0,57,58,0,1.4893,8,1
78,20,0,21,13,0,1.4189,8,1
79,20,0,37,7,1,2.6726,8,1
80,20,0,21,31,0,1.7213,8,1
81,20,0,41,7,1,1.3504,8,1
82,20,0,77,7,1,1.4626,8,1
83,20,0,57,122,0,1.469,8,1
84,20,0,45,122,0,1.8218,8,1
85,20,0,25,13,0,2.5323,8,1
86,20,0,51,122,0,1.8531,8,1
87,20,0,41,31,1,1.6641,8,1
88,20,0,21,122,0,0.9744,8,1
89,20,0,29,31,0,1.5593,8,1
90,20,0,25,122,0,2.0794,8,1
91,20,0,45,1,1,1.0605,8,1
92,20,0,57,7,1,1.3773,8,1
93,20,0,51,13,1,1.2034,8,1
94,20,0,23,1,0,1.3051,8,1
95,20,0,77,122,0,1.4735,8,1
96,20,0,51,58,0,1.4254,8,1
1,20,0,40.6,60,1,1.6715,20,1
2,20,0,71,14,1,1.838,20,1
3,20,0,27.4,30,1,2.0793,20,1
4,20,0,32,3,1,1.8429,20,1
5,20,0,75,8,1,1.246,20,1
6,20,0,25,14,1,2.3113,20,1
7,20,0,49,14,1,1.7335,20,1
8,20,0,60,120,1,2.2933,20,1
9,20,0,27.4,8,1,3.3334,20,1
10,20,0,21.6,30,0,1.8343,20,1
11,20,0,20.6,8,0,2.2685,20,1
12,20,0,40.6,14,1,2.2718,20,1
13,20,0,32,30,1,1.4603,20,1
14,20,0,47,3,1,1.6163,20,1
15,20,0,36.2,120,1,3.0242,20,1
16,20,0,20.6,30,0,1.8343,20,1
17,20,0,36.2,8,1,3.2205,20,1
18,20,0,58,14,1,1.9004,20,1
19,20,0,32,14,1,1.4878,20,1
20,20,0,35,3,1,1.5102,20,1
21,20,0,60,14,1,2.3484,20,1
22,20,0,49,3,1,2.101,20,1
23,20,0,27.4,120,0,3.0714,20,1
24,20,0,23,8,0,3.3916,20,1
25,20,0,35,30,1,1.6038,20,1
26,20,0,35,14,1,3.1233,20,1
27,20,0,40.6,30,1,2.3362,20,1
28,20,0,71,30,1,1.4642,20,1
29,20,0,75,120,1,1.6409,20,1
30,20,0,47,14,1,1.6256,20,1
31,20,0,23,14,0,3.7813,20,1
32,20,0,28.6,3,0,2.2767,20,1
33,20,0,20.6,14,0,1.8982,20,1
34,20,0,27.4,14,1,4.1977,20,1
35,20,0,47,30,1,2.3816,20,1
36,20,0,25,120,0,2.4115,20,1
37,20,0,28.6,8,1,2.2839,20,1
38,20,0,20.6,60,0,2.2746,20,1
39,20,0,40.6,8,1,2.9723,20,1
40,20,0,47,60,1,6.3165,20,1
41,20,0,28.6,30,1,3.7238,20,1
42,20,0,20.6,3,0,2.3815,20,1
43,20,0,49,60,1,2.2812,20,1
44,20,0,32,120,1,4.768,20,1
45,20,0,47,120,1,3.2809,20,1
46,20,0,36.2,60,1,2.4286,20,1
47,20,0,35,120,1,3.4993,20,1
48,20,0,25,60,0,3.286,20,1
49,20,0,71,120,1,3.0218,20,1
50,20,0,58,3,1,2.1156,20,1
51,20,0,21.6,8,0,2.4145,20,1
52,20,0,40.6,3,1,3.2779,20,1
53,20,0,75,14,1,1.7423,20,1
54,20,0,36.2,14,1,2.1748,20,1
55,20,0,28.6,14,1,2.9683,20,1
56,20,0,75,30,1,2.1846,20,1
57,20,0,58,30,1,2.347,20,1
58,20,0,49,30,1,3.6313,20,1
59,20,0,47,8,1,1.7533,20,1
60,20,0,25,3,1,3.7652,20,1
61,20,0,60,60,1,3.2976,20,1
62,20,0,71,3,1,1.8969,20,1
63,20,0,27.4,60,0,2.9483,20,1
64,20,0,28.6,60,1,4.0945,20,1
65,20,0,75,3,1,1.945,20,1
66,20,0,60,3,1,2.0292,20,1
67,20,0,35,8,1,1.6883,20,1
68,20,0,23,30,0,2.6998,20,1
69,20,0,58,60,1,1.5576,20,1
70,20,0,35,60,1,3.3717,20,1
71,20,0,23,120,0,3.3925,20,1
72,20,0,25,8,1,2.1749,20,1
73,20,0,58,8,1,2.1657,20,1
74,20,0,60,30,1,2.3203,20,1
75,20,0,36.2,3,1,1.9804,20,1
76,20,0,49,120,1,2.1642,20,1
77,20,0,32,60,1,3.7396,20,1
78,20,0,36.2,30,1,1.8503,20,1
79,20,0,40.6,120,1,2.8967,20,1
80,20,0,21.6,60,0,5.4843,20,1
81,20,0,58,120,1,2.2094,20,1
82,20,0,49,8,1,3.5563,20,1
83,20,0,27.4,3,1,3.4847,20,1
84,20,0,25,30,0,5.4181,20,1
85,20,0,32,8,1,1.6212,20,1
86,20,0,20.6,120,0,1.7631,20,1
87,20,0,71,8,1,1.9014,20,1
88,20,0,28.6,120,0,1.9421,20,1
89,20,0,23,3,1,2.6805,20,1
90,20,0,21.6,120,0,3.1039,20,1
91,20,0,75,60,1,1.755,20,1
92,20,0,21.6,14,0,2.4715,20,1
93,20,0,60,8,1,2.7962,20,1
94,20,0,21.6,3,0,4.6023,20,1
95,20,0,23,60,0,2.3691,20,1
96,20,0,71,60,1,5.4005,20,1
1,20,0,20.4,6,0,6.2938,4,1
2,20,0,62,6,1,5.856,4,1
3,20,0,30,29,0,5.9734,4,1
4,20,0,56,2,1,2.6936,4,1
5,20,0,70,29,0,4.752,4,1
6,20,0,46,6,0,5.0333,4,1
7,20,0,34,118,0,4.0975,4,1
8,20,0,36.6,29,0,4.4567,4,1
9,20,0,56,15,0,5.3706,4,1
10,20,0,62,29,0,3.9063,4,1
11,20,0,50,6,1,4.3477,4,1
12,20,0,56,118,0,3.4808,4,1
13,20,0,50,62,0,3.295,4,1
14,20,0,21.6,2,1,3.587,4,1
15,20,0,21.6,6,0,3.6224,4,1
16,20,0,26.6,62,0,2.808,4,1
17,20,0,24,15,0,3.7601,4,1
18,20,0,24,62,0,4.1666,4,1
19,20,0,76,6,1,3.2852,4,1
20,20,0,20.4,2,1,4.7617,4,1
21,20,0,24,2,1,2.4394,4,1
22,20,0,41.4,29,0,6.2097,4,1
23,20,0,24,15,0,3.8026,4,1
24,20,0,29.4,2,1,2.6105,4,1
25,20,0,41.4,15,1,5.1255,4,1
26,20,0,34,15,1,7.0969,4,1
27,20,0,29.4,6,1,3.3586,4,1
28,20,0,26.6,6,1,7.3566,4,1
29,20,0,20.4,62,0,3.7133,4,1
30,20,0,20.4,29,0,2.7804,4,1
31,20,0,50,29,0,6.1596,4,1
32,20,0,29.4,62,0,2.2309,4,1
33,20,0,30,15,0,2.7492,4,1
34,20,0,29.4,15,0,3.2507,4,1
35,20,0,30,2,1,3.4717,4,1
36,20,0,21.6,62,0,2.9569,4,1
37,20,0,76,62,0,2.981,4,1
38,20,0,70,15,1,4.2395,4,1
39,20,0,56,62,0,3.7859,4,1
40,20,0,36.6,6,1,4.8339,4,1
41,20,0,50,2,1,3.0337,4,1
42,20,0,46,118,0,3.4743,4,1
43,20,0,41.4,6,1,2.804,4,1
44,20,0,62,2,1,2.3578,4,1
45,20,0,76,15,1,2.6738,4,1
46,20,0,41.4,2,1,4.6655,4,1
47,20,0,24,2,1,3.1521,4,1
48,20,0,30,6,1,4.4921,4,1
49,20,0,50,118,0,4.3951,4,1
50,20,0,56,29,0,3.1717,4,1
51,20,0,24,118,0,5.4075,4,1
52,20,0,36.6,118,1,3.0781,4,1
53,20,0,46,29,0,4.5176,4,1
54,20,0,29.4,29,0,2.02,4,1
55,20,0,46,15,0,2.7231,4,1
56,20,0,34,62,0,2.6489,4,1
57,20,0,24,6,0,3.274,4,1
58,20,0,62,62,0,3.8465,4,1
59,20,0,24,118,0,3.4563,4,1
60,20,0,20.4,118,0,2.2237,4,1
61,20,0,29.4,118,0,1.9093,4,1
62,20,0,41.4,62,0,1.751,4,1
63,20,0,76,2,1,2.3847,4,1
64,20,0,70,118,0,1.9558,4,1
65,20,0,36.6,2,1,1.9137,4,1
66,20,0,76,29,0,3.3369,4,1
67,20,0,26.6,2,1,2.3624,4,1
68,20,0,41.4,118,0,2.46,4,1
69,20,0,36.6,15,1,4.0831,4,1
70,20,0,50,15,1,4.6187,4,1
71,20,0,56,6,1,3.4169,4,1
72,20,0,46,62,0,1.7331,4,1
73,20,0,62,118,0,2.1022,4,1
74,20,0,20.4,15,0,2.1363,4,1
75,20,0,70,2,1,7.3263,4,1
76,20,0,21.6,29,0,2.7031,4,1
77,20,0,34,6,1,3.6413,4,1
78,20,0,26.6,118,0,2.3026,4,1
79,20,0,24,29,0,2.2797,4,1
80,20,0,46,2,1,4.9108,4,1
81,20,0,70,6,1,1.9122,4,1
82,20,0,34,2,1,2.2588,4,1
83,20,0,34,29,0,1.3305,4,1
84,20,0,36.6,62,0,1.7234,4,1
85,20,0,24,6,0,3.1505,4,1
86,20,0,24,29,0,2.6498,4,1
87,20,0,26.6,15,0,2.4748,4,1
88,20,0,21.6,15,0,1.8876,4,1
89,20,0,62,15,1,8.6698,4,1
90,20,0,24,62,0,2.4824,4,1
91,20,0,30,118,0,1.778,4,1
92,20,0,70,62,0,3.3116,4,1
93,20,0,21.6,118,0,1.6791,4,1
94,20,0,30,62,0,1.4193,4,1
95,20,0,26.6,29,0,1.3853,4,1
96,20,0,76,118,0,1.5455,4,1
1,20,0,56,118,0,3.6073,32,1
2,20,0,50,6,1,2.3403,32,1
3,20,0,34,6,1,2.124,32,1
4,20,0,34,15,1,2.3818,32,1
5,20,0,24,62,0,2.9153,32,1
6,20,0,29.4,6,1,2.6825,32,1
7,20,0,62,118,0,2.6012,32,1
8,20,0,26.6,29,0,1.6042,32,1
9,20,0,62,15,1,1.5204,32,1
10,20,0,56,6,1,1.8146,32,1
11,20,0,62,29,1,2.1668,32,1
12,20,0,20.4,118,0,2.3966,32,1
13,20,0,36.6,2,1,2.6514,32,1
14,20,0,34,29,0,2.3361,32,1
15,20,0,24,29,0,1.4544,32,1
16,20,0,41.4,62,0,3.3355,32,1
17,20,0,46,15,1,1.9998,32,1
18,20,0,62,62,0,1.5648,32,1
19,20,0,21.6,15,0,1.5597,32,1
20,20,0,41.4,29,0,2.1351,32,1
21,20,0,70,118,0,1.6587,32,1
22,20,0,76,62,0,4.6089,32,1
23,20,0,30,118,0,1.4546,32,1
24,20,0,62,6,1,2.3868,32,1
25,20,0,26.6,118,0,1.529,32,1
26,20,0,26.6,6,1,2.1734,32,1
27,20,0,50,118,0,1.7188,32,1
28,20,0,24,29,0,4.0942,32,1
29,20,0,20.4,2,0,1.8869,32,1
30,20,0,30,62,0,1.8297,32,1
31,20,0,24,6,1,1.2874,32,1
32,20,0,29.4,15,1,2.246,32,1
33,20,0,26.6,2,1,2.7649,32,1
34,20,0,29.4,2,1,3.8032,32,1
35,20,0,20.4,62,0,2.5188,32,1
36,20,0,21.6,2,0,3.0622,32,1
37,20,0,24,15,0,1.8612,32,1
38,20,0,26.6,62,0,1.3341,32,1
39,20,0,21.6,29,0,1.6294,32,1
40,20,0,24,118,0,1.3235,32,1
41,20,0,36.6,15,1,4.7783,32,1
42,20,0,76,29,1,2.3975,32,1
43,20,0,36.6,118,0,1.641,32,1
44,20,0,29.4,62,0,7.1748,32,1
45,20,0,41.4,6,1,1.4322,32,1
46,20,0,30,6,1,1.3108,32,1
47,20,0,46,29,0,2.3872,32,1
48,20,0,36.6,6,1,1.6029,32,1
49,20,0,20.4,6,1,1.2549,32,1
50,20,0,24,2,1,2.236,32,1
51,20,0,21.6,62,0,1.9631,32,1
52,20,0,24,6,1,2.6378,32,1
53,20,0,21.6,118,0,1.3533,32,1
54,20,0,76,15,1,2.2263,32,1
55,20,0,56,29,0,2.0187,32,1
56,20,0,24,2,0,2.6117,32,1
57,20,0,46,118,0,3.0043,32,1
58,20,0,50,62,0,3.3903,32,1
59,20,0,36.6,29,0,1.9669,32,1
60,20,0,50,2,1,1.5929,32,1
61,20,0,41.4,15,1,2.9779,32,1
62,20,0,30,29,0,3.3039,32,1
63,20,0,24,118,0,1.665,32,1
64,20,0,46,62,0,3.3985,32,1
65,20,0,76,6,1,1.3332,32,1
66,20,0,50,15,1,5.1544,32,1
67,20,0,76,118,0,1.7096,32,1
68,20,0,29.4,118,0,2.8259,32,1
69,20,0,30,2,1,1.9265,32,1
70,20,0,70,62,1,4.6573,32,1
71,20,0,70,2,1,1.2697,32,1
72,20,0,56,2,1,1.9015,32,1
73,20,0,34,62,0,2.4204,32,1
74,20,0,50,29,1,2.0005,32,1
75,20,0,29.4,29,0,2.3905,32,1
76,20,0,20.4,29,0,2.7703,32,1
77,20,0,24,15,1,1.9833,32,1
78,20,0,30,15,1,1.2644,32,1
79,20,0,56,62,0,2.4428,32,1
80,20,0,70,29,1,1.5457,32,1
81,20,0,46,6,1,2.1127,32,1
82,20,0,62,2,1,3.1882,32,1
83,20,0,34,118,0,4.1125,32,1
84,20,0,70,15,1,1.4622,32,1
85,20,0,24,62,0,4.238,32,1
86,20,0,41.4,118,0,1.666,32,1
87,20,0,76,2,1,4.2692,32,1
88,20,0,34,2,1,2.6669,32,1
89,20,0,21.6,6,0,2.1856,32,1
90,20,0,70,6,1,1.1073,32,1
91,20,0,36.6,62,0,1.5075,32,1
92,20,0,56,15,1,2.836,32,1
93,20,0,26.6,15,0,2.3761,32,1
94,20,0,41.4,2,1,2.0259,32,1
95,20,0,46,2,1,1.6759,32,1
96,20,0,20.4,15,0,1.6148,32,1
1,20,0,21.6,30,1,1.782,29,1
2,20,0,25,14,1,1.0767,29,1
3,20,0,75,60,1,1.4184,29,1
4,20,0,71,3,1,1.0687,29,1
5,20,0,28.6,120,0,1.4885,29,1
6,20,0,23,3,1,1.0092,29,1
7,20,0,21.6,14,0,1.4282,29,1
8,20,0,32,14,1,1.0202,29,1
9,20,0,60,14,1,0.9315,29,1
10,20,0,36.2,60,1,0.9594,29,1
11,20,0,36.2,8,1,1.2023,29,1
12,20,0,36.2,14,1,1.1814,29,1
13,20,0,36.2,3,1,0.8641,29,1
14,20,0,58,8,1,1.2028,29,1
15,20,0,23,30,1,1.1154,29,1
16,20,0,25,8,1,0.8499,29,1
17,20,0,35,30,1,0.9916,29,1
18,20,0,20.6,8,0,1.2341,29,1
19,20,0,32,8,1,0.9388,29,1
20,20,0,71,30,1,0.9715,29,1
21,20,0,27.4,30,1,2.2738,29,1
22,20,0,20.6,30,0,0.9688,29,1
23,20,0,60,3,1,0.8518,29,1
24,20,0,32,120,0,1.785,29,1
25,20,0,28.6,30,1,1.2858,29,1
26,20,0,36.2,120,0,1.2653,29,1
27,20,0,60,8,1,0.9667,29,1
28,20,0,47,60,1,0.9144,29,1
29,20,0,32,30,1,0.9943,29,1
30,20,0,28.6,3,1,1.4387,29,1
31,20,0,23,8,0,1.2446,29,1
32,20,0,21.6,8,1,1.457,29,1
33,20,0,40.6,8,1,1.4134,29,1
34,20,0,47,14,1,0.7494,29,1
35,20,0,75,14,1,0.7866,29,1
36,20,0,40.6,3,1,1.131,29,1
37,20,0,36.2,30,1,0.7709,29,1
38,20,0,47,8,1,0.7502,29,1
39,20,0,25,120,1,0.9468,29,1
40,20,0,25,60,1,1.0854,29,1
41,20,0,23,60,0,1.2054,29,1
42,20,0,27.4,60,1,1.1642,29,1
43,20,0,75,3,1,0.778,29,1
44,20,0,49,60,1,0.8366,29,1
45,20,0,49,30,1,0.7763,29,1
46,20,0,60,60,1,1.3962,29,1
47,20,0,20.6,120,0,1.0576,29,1
48,20,0,60,30,1,1.0045,29,1
49,20,0,20.6,14,0,1.1222,29,1
50,20,0,27.4,8,0,1.6968,29,1
51,20,0,27.4,14,1,1.2158,29,1
52,20,0,27.4,120,0,1.2546,29,1
53,20,0,25,3,1,0.9239,29,1
54,20,0,23,14,1,1.0435,29,1
55,20,0,71,8,1,0.8366,29,1
56,20,0,35,3,1,0.955,29,1
57,20,0,20.6,3,0,1.2307,29,1
58,20,0,58,30,1,1.3499,29,1
59,20,0,20.6,60,0,1.0367,29,1
60,20,0,35,60,1,0.7528,29,1
61,20,0,28.6,14,0,1.0257,29,1
62,20,0,75,30,1,0.7126,29,1
63,20,0,21.6,60,0,1.2324,29,1
64,20,0,49,120,0,1.2836,29,1
65,20,0,40.6,120,0,1.3921,29,1
66,20,0,23,120,0,0.9776,29,1
67,20,0,40.6,30,1,1.0429,29,1
68,20,0,27.4,3,1,1.1145,29,1
69,20,0,35,14,1,1.1662,29,1
70,20,0,28.6,60,1,1.4008,29,1
71,20,0,49,14,1,1.3298,29,1
72,20,0,21.6,120,0,1.2349,29,1
73,20,0,35,120,1,1.0159,29,1
74,20,0,21.6,3,1,1.2598,29,1
75,20,0,75,8,1,0.8449,29,1
76,20,0,71,120,1,0.9036,29,1
77,20,0,75,120,1,0.6489,29,1
78,20,0,47,120,1,0.8511,29,1
79,20,0,47,3,1,0.8797,29,1
80,20,0,47,30,1,0.7455,29,1
81,20,0,49,3,1,0.7876,29,1
82,20,0,25,30,1,1.163,29,1
83,20,0,28.6,8,1,1.2017,29,1
84,20,0,40.6,60,1,0.7697,29,1
85,20,0,71,14,1,0.7832,29,1
86,20,0,58,3,1,0.7747,29,1
87,20,0,40.6,14,1,0.8986,29,1
88,20,0,32,60,1,0.9503,29,1
89,20,0,58,14,1,0.6416,29,1
90,20,0,71,60,1,0.6818,29,1
91,20,0,32,3,1,0.8051,29,1
92,20,0,60,120,1,1.1698,29,1
93,20,0,58,60,1,0.9187,29,1
94,20,0,58,120,1,0.8271,29,1
95,20,0,49,8,1,0.7798,29,1
96,20,0,35,8,1,1.208,29,1
1,20,0,71,120,0,12.9448,25,1
2,20,0,25,8,0,4.7736,25,1
3,20,0,23,30,0,3.0746,25,1
4,20,0,58,60,1,3.5043,25,1
5,20,0,20.6,14,0,4.9138,25,1
6,20,0,40.6,60,1,5.1534,25,1
7,20,0,49,14,1,3.2096,25,1
8,20,0,25,14,1,5.4796,25,1
9,20,0,75,14,1,2.6311,25,1
10,20,0,23,60,0,2.5391,25,1
11,20,0,28.6,60,0,3.9542,25,1
12,20,0,21.6,120,0,2.2014,25,1
13,20,0,28.6,8,1,4.3777,25,1
14,20,0,32,14,1,2.1993,25,1
15,20,0,36.2,3,1,2.6809,25,1
16,20,0,60,14,1,1.8819,25,1
17,20,0,40.6,14,1,3.1545,25,1
18,20,0,25,3,1,1.4161,25,1
19,20,0,27.4,60,1,8.8031,25,1
20,20,0,20.6,30,0,1.7669,25,1
21,20,0,71,8,1,1.2479,25,1
22,20,0,25,30,1,3.242,25,1
23,20,0,49,8,1,1.156,25,1
24,20,0,28.6,120,0,1.6752,25,1
25,20,0,35,120,0,2.4277,25,1
26,20,0,23,120,0,4.1034,25,1
27,20,0,60,60,1,1.7653,25,1
28,20,0,21.6,3,1,3.3316,25,1
29,20,0,20.6,60,0,3.1149,25,1
30,20,0,32,60,1,8.5165,25,1
31,20,0,35,14,1,1.4691,25,1
32,20,0,23,8,1,2.8026,25,1
33,20,0,47,120,1,4.7641,25,1
34,20,0,58,30,1,1.1114,25,1
35,20,0,49,120,1,2.7873,25,1
36,20,0,71,30,1,1.1197,25,1
37,20,0,28.6,3,1,1.6238,25,1
38,20,0,36.2,30,1,1.5232,25,1
39,20,0,23,14,1,2.8522,25,1
40,20,0,35,8,1,1.3331,25,1
41,20,0,25,60,0,2.2869,25,1
42,20,0,27.4,120,0,8.4034,25,1
43,20,0,58,120,1,2.2448,25,1
44,20,0,75,3,1,1.0164,25,1
45,20,0,58,3,1,2.3956,25,1
46,20,0,40.6,30,1,1.6725,25,1
47,20,0,20.6,120,0,1.7111,25,1
48,20,0,32,3,1,1.8366,25,1
49,20,0,49,60,1,1.4154,25,1
50,20,0,40.6,3,1,1.8575,25,1
51,20,0,25,120,0,1.8307,25,1
52,20,0,47,60,1,5.4396,25,1
53,20,0,20.6,8,1,1.2673,25,1
54,20,0,75,8,1,3.2756,25,1
55,20,0,32,120,0,2.4535,25,1
56,20,0,36.2,14,1,2.6448,25,1
57,20,0,20.6,3,1,3.1753,25,1
58,20,0,40.6,120,0,10.9441,25,1
59,20,0,27.4,14,1,7.4892,25,1
60,20,0,60,3,1,1.3013,25,1
61,20,0,47,30,1,3.6952,25,1
62,20,0,35,60,1,5.0596,25,1
63,20,0,21.6,14,1,2.0635,25,1
64,20,0,71,3,1,1.2908,25,1
65,20,0,47,3,1,1.7035,25,1
66,20,0,27.4,8,1,1.6636,25,1
67,20,0,58,8,1,1.0073,25,1
68,20,0,58,14,1,1.5085,25,1
69,20,0,47,14,1,2.3341,25,1
70,20,0,32,8,1,1.176,25,1
71,20,0,36.2,120,0,1.128,25,1
72,20,0,21.6,8,1,2.3141,25,1
73,20,0,36.2,8,1,1.6699,25,1
74,20,0,75,120,1,3.0097,25,1
75,20,0,27.4,3,1,1.7328,25,1
76,20,0,49,30,1,1.8849,25,1
77,20,0,35,30,1,3.8268,25,1
78,20,0,28.6,30,1,2.4344,25,1
79,20,0,40.6,8,1,4.0677,25,1
80,20,0,23,3,1,1.0602,25,1
81,20,0,49,3,1,1.4164,25,1
82,20,0,35,3,1,3.1188,25,1
83,20,0,60,30,1,3.2638,25,1
84,20,0,47,8,1,2.205,25,1
85,20,0,21.6,60,0,2.1187,25,1
86,20,0,60,8,1,5.7823,25,1
87,20,0,75,30,1,4.2698,25,1
88,20,0,71,14,1,2.3364,25,1
89,20,0,32,30,1,2.4101,25,1
90,20,0,28.6,14,1,3.3866,25,1
91,20,0,27.4,30,1,3.2234,25,1
92,20,0,21.6,30,0,2.1742,25,1
93,20,0,71,60,1,5.2382,25,1
94,20,0,60,120,0,2.6369,25,1
95,20,0,75,60,1,6.0652,25,1
96,20,0,36.2,60,1,5.711,25,1
1,20,0,60,3,1,2.6937,13,1
2,20,0,36.2,60,1,3.8442,13,1
3,20,0,71,3,1,1.3442,13,1
4,20,0,58,60,1,7.4229,13,1
5,20,0,71,14,1,1.7165,13,1
6,20,0,60,14,1,2.7918,13,1
7,20,0,75,8,1,1.7623,13,1
8,20,0,28.6,60,0,3.485,13,1
9,20,0,36.2,30,1,5.2938,13,1
10,20,0,25,3,0,2.2982,13,1
11,20,0,36.2,8,1,2.1311,13,1
12,20,0,58,14,1,1.3158,13,1
13,20,0,58,30,1,1.9566,13,1
14,20,0,32,60,1,3.7813,13,1
15,20,0,27.4,120,0,2.215,13,1
16,20,0,47,30,1,1.3793,13,1
17,20,0,47,120,0,6.1352,13,1
18,20,0,40.6,30,1,3.2033,13,1
19,20,0,47,8,1,2.0162,13,1
20,20,0,47,3,1,2.1551,13,1
21,20,0,20.6,120,0,1.2405,13,1
22,20,0,60,120,1,1.2457,13,1
23,20,0,49,120,1,1.5892,13,1
24,20,0,28.6,14,0,1.5768,13,1
25,20,0,49,60,1,1.5614,13,1
26,20,0,40.6,8,1,1.8397,13,1
27,20,0,60,8,1,1.9787,13,1
28,20,0,49,14,1,1.1612,13,1
29,20,0,40.6,3,1,2.1516,13,1
30,20,0,25,120,0,1.8334,13,1
31,20,0,49,30,1,1.7997,13,1
32,20,0,20.6,8,0,1.3973,13,1
33,20,0,75,14,1,1.2078,13,1
34,20,0,71,8,1,1.058,13,1
35,20,0,21.6,8,0,2.4726,13,1
36,20,0,75,60,1,1.1153,13,1
37,20,0,35,8,1,4.4246,13,1
38,20,0,58,120,1,1.6553,13,1
39,20,0,36.2,120,0,1.3329,13,1
40,20,0,40.6,14,1,2.4877,13,1
41,20,0,32,30,1,1.0705,13,1
42,20,0,32,120,0,2.1083,13,1
43,20,0,27.4,14,1,6.3563,13,1
44,20,0,40.6,60,1,0.9315,13,1
45,20,0,20.6,14,0,1.4872,13,1
46,20,0,23,8,0,3.318,13,1
47,20,0,21.6,60,0,2.1921,13,1
48,20,0,35,14,1,1.1166,13,1
49,20,0,35,3,1,1.7537,13,1
50,20,0,49,8,1,1.3363,13,1
51,20,0,36.2,3,1,1.1642,13,1
52,20,0,49,3,1,0.8162,13,1
53,20,0,71,60,1,1.0393,13,1
54,20,0,58,8,1,1.1565,13,1
55,20,0,58,3,1,0.7738,13,1
56,20,0,23,3,1,1.6006,13,1
57,20,0,21.6,120,0,1.612,13,1
58,20,0,21.6,3,0,1.436,13,1
59,20,0,75,3,1,1.4324,13,1
60,20,0,36.2,14,1,3.8007,13,1
61,20,0,28.6,3,1,3.851,13,1
62,20,0,25,8,1,4.2668,13,1
63,20,0,75,120,1,1.2531,13,1
64,20,0,47,14,1,1.4513,13,1
65,20,0,35,30,1,1.1577,13,1
66,20,0,28.6,120,1,8.3324,13,1
67,20,0,21.6,14,0,1.5413,13,1
68,20,0,60,60,1,1.1574,13,1
69,20,0,27.4,8,1,2.0276,13,1
70,20,0,23,120,0,1.8895,13,1
71,20,0,35,60,1,1.3881,13,1
72,20,0,32,3,1,4.1242,13,1
73,20,0,40.6,120,1,2.0122,13,1
74,20,0,32,8,1,2.365,13,1
75,20,0,71,120,1,1.8508,13,1
76,20,0,23,14,1,6.3313,13,1
77,20,0,25,14,1,1.3138,13,1
78,20,0,27.4,3,1,1.2457,13,1
79,20,0,28.6,30,1,2.9154,13,1
80,20,0,60,30,1,2.3714,13,1
81,20,0,20.6,30,0,2.601,13,1
82,20,0,75,30,1,1.1093,13,1
83,20,0,27.4,60,1,3.0199,13,1
84,20,0,35,120,1,1.4474,13,1
85,20,0,21.6,30,0,1.7885,13,1
86,20,0,25,30,0,1.9737,13,1
87,20,0,28.6,8,1,1.5116,13,1
88,20,0,27.4,30,1,1.4393,13,1
89,20,0,20.6,60,0,1.7375,13,1
90,20,0,23,30,0,11.9561,13,1
91,20,0,25,60,0,2.1645,13,1
92,20,0,47,60,1,1.1309,13,1
93,20,0,23,60,0,1.9269,13,1
94,20,0,20.6,3,0,2.0134,13,1
95,20,0,71,30,1,1.0129,13,1
96,20,0,32,14,1,1.3763,13,1
1,20,0,45,122,0,6.1275,1,1
2,20,0,21,31,1,4.1832,1,1
3,20,0,51,7,1,2.6211,1,1
4,20,0,77,1,1,2.1637,1,1
5,20,0,77,58,1,3.4548,1,1
6,20,0,21,13,1,5.1404,1,1
7,20,0,57,122,1,2.154,1,1
8,20,0,57,1,1,1.9782,1,1
9,20,0,37,1,1,2.0674,1,1
10,20,0,27,13,1,2.481,1,1
11,20,0,51,58,1,1.6623,1,1
12,20,0,57,31,1,1.7828,1,1
13,20,0,21,7,1,3.8667,1,1
14,20,0,23,13,1,1.4618,1,1
15,20,0,77,7,1,1.3705,1,1
16,20,0,29,1,1,1.3938,1,1
17,20,0,37,31,1,1.7032,1,1
18,20,0,31,58,1,1.6249,1,1
19,20,0,21,1,1,1.8078,1,1
20,20,0,29,58,1,1.9785,1,1
21,20,0,69,58,1,2.0913,1,1
22,20,0,33,58,1,2.7401,1,1
23,20,0,23,1,1,1.5013,1,1
24,20,0,61,13,1,1.5855,1,1
25,20,0,61,7,1,1.4728,1,1
26,20,0,57,7,1,1.6925,1,1
27,20,0,37,7,1,1.3397,1,1
28,20,0,21,13,1,2.0084,1,1
29,20,0,23,7,1,1.9534,1,1
30,20,0,25,1,1,1.3976,1,1
31,20,0,33,122,0,3.2859,1,1
32,20,0,23,58,1,1.8143,1,1
33,20,0,61,58,1,1.7338,1,1
34,20,0,69,7,1,1.7083,1,1
35,20,0,51,31,1,1.2801,1,1
36,20,0,33,31,1,1.7013,1,1
37,20,0,29,122,0,2.6644,1,1
38,20,0,41,13,1,1.4729,1,1
39,20,0,77,13,1,1.0414,1,1
40,20,0,21,7,1,1.4851,1,1
41,20,0,27,122,0,1.71,1,1
42,20,0,45,31,1,1.8651,1,1
43,20,0,29,7,1,1.5796,1,1
44,20,0,45,58,1,1.9131,1,1
45,20,0,33,1,1,1.6566,1,1
46,20,0,21,122,0,1.7389,1,1
47,20,0,45,1,1,1.9609,1,1
48,20,0,77,31,1,1.2806,1,1
49,20,0,21,58,0,1.634,1,1
50,20,0,31,7,1,2.2557,1,1
51,20,0,25,122,1,3.3933,1,1
52,20,0,23,31,1,1.9865,1,1
53,20,0,61,31,1,1.3868,1,1
54,20,0,33,7,1,1.3878,1,1
55,20,0,41,58,1,1.5984,1,1
56,20,0,31,13,1,1.8162,1,1
57,20,0,25,58,1,1.7936,1,1
58,20,0,25,31,1,1.468,1,1
59,20,0,41,7,1,1.7114,1,1
60,20,0,37,122,1,3.0097,1,1
61,20,0,25,13,1,2.1713,1,1
62,20,0,45,7,1,1.5189,1,1
63,20,0,41,1,1,1.31,1,1
64,20,0,27,31,1,1.7578,1,1
65,20,0,61,122,1,2.1353,1,1
66,20,0,45,13,1,1.3984,1,1
67,20,0,51,1,1,0.9026,1,1
68,20,0,51,13,1,0.8117,1,1
69,20,0,37,58,1,1.4037,1,1
70,20,0,21,58,0,3.0794,1,1
71,20,0,31,122,1,1.8831,1,1
72,20,0,41,31,1,2.0387,1,1
73,20,0,41,122,1,1.5094,1,1
74,20,0,31,1,1,1.8454,1,1
75,20,0,69,1,1,1.5346,1,1
76,20,0,57,58,1,1.4775,1,1
77,20,0,29,31,1,3.305,1,1
78,20,0,21,1,0,2.1236,1,1
79,20,0,69,13,1,1.566,1,1
80,20,0,23,122,0,2.2121,1,1
81,20,0,25,7,1,1.3586,1,1
82,20,0,57,13,1,1.7308,1,1
83,20,0,51,122,1,1.8956,1,1
84,20,0,21,122,0,1.7233,1,1
85,20,0,31,31,1,1.6796,1,1
86,20,0,69,31,1,1.4847,1,1
87,20,0,77,122,1,1.4229,1,1
88,20,0,29,13,1,1.3189,1,1
89,20,0,37,13,1,1.4101,1,1
90,20,0,27,7,1,1.175,1,1
91,20,0,27,58,1,1.1737,1,1
92,20,0,27,1,1,1.3549,1,1
93,20,0,21,31,0,4.054,1,1
94,20,0,69,122,1,1.5279,1,1
95,20,0,61,1,1,2.0217,1,1
96,20,0,33,13,1,2.5285,1,1
1,20,0,21,58,0,3.9752,11,1
2,20,0,57,7,1,3.1482,11,1
3,20,0,27,58,0,3.8256,11,1
4,20,0,25,122,0,2.522,11,1
5,20,0,61,1,1,2.6167,11,1
6,20,0,41,31,1,2.9401,11,1
7,20,0,77,7,1,1.4376,11,1
8,20,0,29,122,0,3.2672,11,1
9,20,0,69,7,1,1.8007,11,1
10,20,0,25,31,1,4.102,11,1
11,20,0,29,31,1,2.1784,11,1
12,20,0,69,122,1,3.127,11,1
13,20,0,77,13,1,3.3702,11,1
14,20,0,29,58,0,3.3392,11,1
15,20,0,57,13,1,1.6693,11,1
16,20,0,31,31,1,1.781,11,1
17,20,0,69,13,1,1.3545,11,1
18,20,0,21,122,0,2.8435,11,1
19,20,0,33,122,1,2.8754,11,1
20,20,0,37,31,1,1.4949,11,1
21,20,0,21,1,0,1.4179,11,1
22,20,0,33,7,1,1.3197,11,1
23,20,0,25,7,1,1.3365,11,1
24,20,0,41,13,1,0.9295,11,1
25,20,0,61,122,1,2.208,11,1
26,20,0,45,7,1,1.0751,11,1
27,20,0,21,1,0,1.4786,11,1
28,20,0,33,31,1,1.7882,11,1
29,20,0,61,7,1,0.9433,11,1
30,20,0,51,1,1,1.0636,11,1
31,20,0,41,7,1,1.7498,11,1
32,20,0,31,1,0,2.465,11,1
33,20,0,27,122,0,1.8431,11,1
34,20,0,33,1,1,1.3178,11,1
35,20,0,23,58,0,1.6257,11,1
36,20,0,23,31,0,2.2576,11,1
37,20,0,45,58,1,1.7973,11,1
38,20,0,69,31,1,1.3748,11,1
39,20,0,21,13,0,1.4022,11,1
40,20,0,37,1,1,1.1648,11,1
41,20,0,45,1,1,1.0069,11,1
42,20,0,41,58,1,1.9095,11,1
43,20,0,37,58,1,1.7314,11,1
44,20,0,33,58,1,2.1542,11,1
45,20,0,45,31,1,1.7738,11,1
46,20,0,29,7,1,1.7187,11,1
47,20,0,61,31,1,1.2469,11,1
48,20,0,27,1,1,1.7928,11,1
49,20,0,27,7,1,2.4135,11,1
50,20,0,61,58,1,1.397,11,1
51,20,0,31,122,0,2.4325,11,1
52,20,0,21,7,0,1.2992,11,1
53,20,0,31,7,1,1.1069,11,1
54,20,0,23,1,1,2.0674,11,1
55,20,0,21,31,0,1.4464,11,1
56,20,0,31,13,1,1.2151,11,1
57,20,0,21,58,0,2.0269,11,1
58,20,0,25,1,1,1.8696,11,1
59,20,0,45,13,1,1.2453,11,1
60,20,0,51,31,1,1.1977,11,1
61,20,0,69,1,1,1.0186,11,1
62,20,0,57,122,1,1.9035,11,1
63,20,0,37,13,1,1.4747,11,1
64,20,0,57,31,1,1.3703,11,1
65,20,0,51,13,1,1.5329,11,1
66,20,0,33,13,1,1.674,11,1
67,20,0,23,13,1,2.1456,11,1
68,20,0,51,7,1,1.1789,11,1
69,20,0,23,7,0,2.3201,11,1
70,20,0,77,58,1,1.2714,11,1
71,20,0,23,122,0,1.9422,11,1
72,20,0,77,122,1,2.165,11,1
73,20,0,77,1,1,1.3724,11,1
74,20,0,51,58,1,1.595,11,1
75,20,0,69,58,1,1.277,11,1
76,20,0,57,1,1,1.4445,11,1
77,20,0,41,122,0,1.7007,11,1
78,20,0,29,1,1,1.3192,11,1
79,20,0,51,122,1,2.1607,11,1
80,20,0,37,7,1,2.5645,11,1
81,20,0,21,31,0,3.1686,11,1
82,20,0,21,122,0,1.3341,11,1
83,20,0,45,122,1,1.357,11,1
84,20,0,29,13,1,1.4047,11,1
85,20,0,21,7,0,1.9433,11,1
86,20,0,57,58,1,1.1144,11,1
87,20,0,37,122,1,3.6039,11,1
88,20,0,25,13,1,1.7471,11,1
89,20,0,27,31,1,2.5267,11,1
90,20,0,25,58,0,1.7318,11,1
91,20,0,31,58,1,3.4585,11,1
92,20,0,41,1,1,0.8916,11,1
93,20,0,21,13,0,2.3943,11,1
94,20,0,27,13,1,1.2866,11,1
95,20,0,77,31,1,1.396,11,1
96,20,0,61,13,1,1.2093,11,1
1,20,0,25,120,1,1.5362,3,1
2,20,0,20.6,8,0,1.5271,3,1
3,20,0,25,30,1,1.037,3,1
4,20,0,71,14,1,0.7011,3,1
5,20,0,27.4,8,1,0.5176,3,1
6,20,0,75,120,1,0.607,3,1
7,20,0,36.2,60,1,0.5872,3,1
8,20,0,20.6,3,0,1.1273,3,1
9,20,0,47,3,1,0.8046,3,1
10,20,0,28.6,8,1,0.7467,3,1
11,20,0,58,120,1,0.7223,3,1
12,20,0,25,3,1,0.8669,3,1
13,20,0,47,120,1,0.6663,3,1
14,20,0,71,30,1,0.6431,3,1
15,20,0,32,120,1,0.9204,3,1
16,20,0,58,8,1,0.7277,3,1
17,20,0,28.6,3,1,0.6972,3,1
18,20,0,49,3,1,0.6679,3,1
19,20,0,28.6,120,1,0.8022,3,1
20,20,0,35,60,1,0.7634,3,1
21,20,0,28.6,14,1,0.9448,3,1
22,20,0,49,14,1,0.9686,3,1
23,20,0,23,120,0,1.4039,3,1
24,20,0,75,60,1,0.7403,3,1
25,20,0,40.6,14,1,0.7047,3,1
26,20,0,71,8,1,0.7251,3,1
27,20,0,49,120,1,0.5918,3,1
28,20,0,32,3,1,1.2357,3,1
29,20,0,36.2,3,1,0.7742,3,1
30,20,0,47,30,1,0.5883,3,1
31,20,0,75,14,1,0.705,3,1
32,20,0,60,120,1,0.5905,3,1
33,20,0,75,3,1,0.9251,3,1
34,20,0,47,8,1,0.6547,3,1
35,20,0,32,30,1,0.6698,3,1
36,20,0,32,14,1,0.8984,3,1
37,20,0,40.6,60,1,0.8959,3,1
38,20,0,40.6,3,1,1.4355,3,1
39,20,0,20.6,30,0,1.2668,3,1
40,20,0,28.6,60,1,1.2985,3,1
41,20,0,49,30,1,0.8006,3,1
42,20,0,49,60,1,0.731,3,1
43,20,0,27.4,60,1,1.8444,3,1
44,20,0,75,30,1,0.8332,3,1
45,20,0,32,60,1,0.7528,3,1
46,20,0,36.2,8,1,0.8718,3,1
47,20,0,21.6,8,0,0.9454,3,1
48,20,0,58,60,1,0.815,3,1
49,20,0,27.4,120,1,0.5704,3,1
50,20,0,71,120,1,0.8563,3,1
51,20,0,71,3,1,0.5848,3,1
52,20,0,35,30,1,1.4028,3,1
53,20,0,25,14,1,1.3327,3,1
54,20,0,47,60,1,0.6399,3,1
55,20,0,21.6,60,0,0.7897,3,1
56,20,0,20.6,120,0,1.1659,3,1
57,20,0,35,3,1,0.9822,3,1
58,20,0,23,3,1,0.7272,3,1
59,20,0,25,60,1,0.6351,3,1
60,20,0,20.6,14,1,0.6994,3,1
61,20,0,27.4,14,1,1.4695,3,1
62,20,0,58,30,1,0.6279,3,1
63,20,0,60,30,1,0.9772,3,1
64,20,0,20.6,60,0,0.9757,3,1
65,20,0,35,8,1,0.8427,3,1
66,20,0,25,8,1,0.6957,3,1
67,20,0,75,8,1,0.8651,3,1
68,20,0,27.4,3,1,0.7787,3,1
69,20,0,36.2,30,1,0.6808,3,1
70,20,0,23,30,0,1.5985,3,1
71,20,0,60,8,1,0.9707,3,1
72,20,0,36.2,14,1,0.5774,3,1
73,20,0,36.2,120,1,0.6001,3,1
74,20,0,71,60,1,0.6891,3,1
75,20,0,40.6,8,1,0.5881,3,1
76,20,0,35,120,1,0.5436,3,1
77,20,0,32,8,1,0.89,3,1
78,20,0,21.6,30,0,1.1495,3,1
79,20,0,58,14,1,1.1739,3,1
80,20,0,28.6,30,1,1.2228,3,1
81,20,0,21.6,14,0,1.0143,3,1
82,20,0,23,14,1,1.4793,3,1
83,20,0,21.6,120,0,1.0105,3,1
84,20,0,40.6,120,1,0.7523,3,1
85,20,0,60,3,1,0.6908,3,1
86,20,0,23,60,1,1.0564,3,1
87,20,0,35,14,1,0.8491,3,1
88,20,0,60,14,1,0.7018,3,1
89,20,0,47,14,1,0.6942,3,1
90,20,0,21.6,3,0,0.9273,3,1
91,20,0,40.6,30,1,0.8038,3,1
92,20,0,60,60,1,0.9465,3,1
93,20,0,49,8,1,0.8508,3,1
94,20,0,58,3,1,0.8498,3,1
95,20,0,27.4,30,1,1.3831,3,1
96,20,0,23,8,1,1.4851,3,1
1,20,0,41.4,118,1,1.8494,27,1
2,20,0,56,2,1,2.8628,27,1
3,20,0,20.4,62,0,2.3636,27,1
4,20,0,76,6,1,2.7617,27,1
5,20,0,50,118,0,3.6336,27,1
6,20,0,24,118,0,3.5398,27,1
7,20,0,20.4,6,0,2.7618,27,1
8,20,0,70,29,1,2.6037,27,1
9,20,0,29.4,29,1,3.4944,27,1
10,20,0,21.6,2,0,5.3161,27,1
11,20,0,21.6,118,0,2.4205,27,1
12,20,0,62,118,1,2.5324,27,1
13,20,0,76,15,1,2.2108,27,1
14,20,0,46,6,1,2.3264,27,1
15,20,0,36.6,15,1,1.8872,27,1
16,20,0,70,6,1,1.6974,27,1
17,20,0,24,118,0,2.7522,27,1
18,20,0,24,15,0,3.8836,27,1
19,20,0,62,62,1,4.2489,27,1
20,20,0,50,6,1,2.4288,27,1
21,20,0,24,2,1,3.3898,27,1
22,20,0,21.6,6,0,2.4475,27,1
23,20,0,70,62,1,2.751,27,1
24,20,0,56,15,1,1.6716,27,1
25,20,0,24,2,1,3.4381,27,1
26,20,0,30,118,0,3.4822,27,1
27,20,0,21.6,29,0,3.0373,27,1
28,20,0,62,15,1,1.8305,27,1
29,20,0,50,2,1,2.1341,27,1
30,20,0,56,62,1,2.8148,27,1
31,20,0,30,62,1,5.6897,27,1
32,20,0,70,118,1,2.6994,27,1
33,20,0,70,2,1,1.4427,27,1
34,20,0,29.4,118,0,2.0457,27,1
35,20,0,46,29,1,2.7961,27,1
36,20,0,34,2,1,3.2687,27,1
37,20,0,30,29,1,2.9173,27,1
38,20,0,50,15,1,2.1461,27,1
39,20,0,20.4,118,0,2.3857,27,1
40,20,0,50,62,1,2.4499,27,1
41,20,0,70,15,1,2.0833,27,1
42,20,0,76,29,1,1.8838,27,1
43,20,0,34,15,1,2.6021,27,1
44,20,0,29.4,15,1,2.6098,27,1
45,20,0,24,62,0,4.3544,27,1
46,20,0,34,29,1,4.8002,27,1
47,20,0,24,15,0,4.384,27,1
48,20,0,34,118,0,2.5606,27,1
49,20,0,36.6,118,1,6.6633,27,1
50,20,0,46,2,1,3.4114,27,1
51,20,0,56,29,1,1.5368,27,1
52,20,0,26.6,15,1,1.8798,27,1
53,20,0,41.4,29,1,3.2277,27,1
54,20,0,30,2,1,1.7927,27,1
55,20,0,30,15,1,2.874,27,1
56,20,0,76,62,1,2.573,27,1
57,20,0,56,6,1,2.6816,27,1
58,20,0,24,62,0,2.9464,27,1
59,20,0,26.6,62,0,3.002,27,1
60,20,0,62,6,1,3.182,27,1
61,20,0,21.6,15,0,2.8319,27,1
62,20,0,24,29,0,4.4905,27,1
63,20,0,62,2,1,3.7581,27,1
64,20,0,24,6,1,6.6928,27,1
65,20,0,50,29,1,2.2308,27,1
66,20,0,34,6,1,1.7455,27,1
67,20,0,29.4,6,1,2.5214,27,1
68,20,0,34,62,1,4.8757,27,1
69,20,0,24,6,1,3.5966,27,1
70,20,0,20.4,2,0,1.9651,27,1
71,20,0,24,29,0,4.379,27,1
72,20,0,46,15,1,1.7336,27,1
73,20,0,41.4,15,1,2.6263,27,1
74,20,0,20.4,15,0,1.8298,27,1
75,20,0,36.6,6,1,2.6759,27,1
76,20,0,41.4,2,1,1.5204,27,1
77,20,0,26.6,118,0,4.2891,27,1
78,20,0,29.4,2,1,5.412,27,1
79,20,0,36.6,62,1,5.3969,27,1
80,20,0,41.4,62,1,2.3542,27,1
81,20,0,41.4,6,1,1.403,27,1
82,20,0,36.6,2,1,2.0851,27,1
83,20,0,36.6,29,1,4.76,27,1
84,20,0,76,118,1,2.4738,27,1
85,20,0,56,118,1,3.2083,27,1
86,20,0,46,118,1,2.7126,27,1
87,20,0,30,6,1,3.1002,27,1
88,20,0,62,29,1,2.763,27,1
89,20,0,21.6,62,0,2.3422,27,1
90,20,0,29.4,62,1,4.7684,27,1
91,20,0,46,62,1,5.0717,27,1
92,20,0,20.4,29,0,5.1959,27,1
93,20,0,76,2,1,1.9578,27,1
94,20,0,26.6,29,0,4.2229,27,1
95,20,0,26.6,2,1,1.7973,27,1
96,20,0,26.6,6,1,3.625,27,1
1,20,0,77,13,1,7.7892,15,1
2,20,0,21,1,0,2.5869,15,1
3,20,0,45,7,1,1.6231,15,1
4,20,0,77,58,0,2.4613,15,1
5,20,0,29,13,0,3.1852,15,1
6,20,0,25,1,1,1.5553,15,1
7,20,0,27,31,0,2.3749,15,1
8,20,0,37,58,0,1.7691,15,1
9,20,0,31,31,0,1.8488,15,1
10,20,0,31,58,0,1.5108,15,1
11,20,0,69,122,0,1.9163,15,1
12,20,0,61,58,0,1.8533,15,1
13,20,0,31,7,1,3.4557,15,1
14,20,0,33,1,1,2.4282,15,1
15,20,0,21,7,0,2.4464,15,1
16,20,0,57,7,1,1.5547,15,1
17,20,0,21,31,0,1.4946,15,1
18,20,0,69,13,1,1.8526,15,1
19,20,0,37,31,0,1.4598,15,1
20,20,0,77,122,0,2.9269,15,1
21,20,0,21,122,0,1.7885,15,1
22,20,0,57,122,0,1.4335,15,1
23,20,0,21,13,0,1.4924,15,1
24,20,0,45,58,0,2.7899,15,1
25,20,0,33,58,0,1.5813,15,1
26,20,0,41,58,0,2.0037,15,1
27,20,0,69,1,1,1.5589,15,1
28,20,0,33,13,1,3.6454,15,1
29,20,0,77,1,1,1.297,15,1
30,20,0,21,1,0,1.3445,15,1
31,20,0,37,13,1,1.8885,15,1
32,20,0,25,122,0,1.3386,15,1
33,20,0,51,1,1,1.0023,15,1
34,20,0,41,1,1,1.6321,15,1
35,20,0,61,122,0,2.619,15,1
36,20,0,57,31,0,1.3387,15,1
37,20,0,25,58,0,3.1718,15,1
38,20,0,37,7,1,1.3474,15,1
39,20,0,41,13,1,1.3259,15,1
40,20,0,23,1,1,1.342,15,1
41,20,0,33,31,1,2.3283,15,1
42,20,0,57,13,1,1.118,15,1
43,20,0,41,31,0,1.222,15,1
44,20,0,25,31,0,2.1089,15,1
45,20,0,29,31,0,2.109,15,1
46,20,0,33,122,0,1.6755,15,1
47,20,0,77,31,1,1.9101,15,1
48,20,0,69,31,1,3.1807,15,1
49,20,0,21,13,0,2.6965,15,1
50,20,0,61,31,1,2.6176,15,1
51,20,0,29,7,1,1.2584,15,1
52,20,0,21,122,0,1.4109,15,1
53,20,0,51,7,1,1.3321,15,1
54,20,0,21,58,0,1.3439,15,1
55,20,0,21,31,0,1.0854,15,1
56,20,0,29,122,0,1.0913,15,1
57,20,0,27,58,0,1.8423,15,1
58,20,0,51,31,1,2.9496,15,1
59,20,0,27,122,0,1.3182,15,1
60,20,0,37,122,0,1.4264,15,1
61,20,0,61,7,1,1.177,15,1
62,20,0,27,1,1,1.5391,15,1
63,20,0,29,1,1,1.3505,15,1
64,20,0,61,1,1,0.8474,15,1
65,20,0,25,13,1,2.8117,15,1
66,20,0,69,7,1,1.3137,15,1
67,20,0,45,1,1,1.304,15,1
68,20,0,33,7,1,1.3441,15,1
69,20,0,69,58,1,1.0823,15,1
70,20,0,27,7,1,2.7794,15,1
71,20,0,31,13,1,2.506,15,1
72,20,0,45,122,0,1.3295,15,1
73,20,0,31,1,1,1.8678,15,1
74,20,0,23,58,0,1.2082,15,1
75,20,0,25,7,1,1.9017,15,1
76,20,0,57,1,1,2.1823,15,1
77,20,0,45,13,1,1.5149,15,1
78,20,0,31,122,0,1.5527,15,1
79,20,0,23,31,0,2.5165,15,1
80,20,0,57,58,0,2.0939,15,1
81,20,0,27,13,1,2.8736,15,1
82,20,0,23,7,0,2.4472,15,1
83,20,0,41,7,1,1.7307,15,1
84,20,0,41,122,0,1.9248,15,1
85,20,0,37,1,1,1.341,15,1
86,20,0,29,58,0,3.8708,15,1
87,20,0,21,58,0,1.8398,15,1
88,20,0,51,122,0,1.8249,15,1
89,20,0,51,13,1,2.254,15,1
90,20,0,77,7,1,1.3244,15,1
91,20,0,45,31,0,3.9289,15,1
92,20,0,23,13,0,2.5959,15,1
93,20,0,21,7,0,2.2939,15,1
94,20,0,61,13,1,1.5561,15,1
95,20,0,23,122,0,1.6456,15,1
96,20,0,51,58,0,1.6038,15,1
1,20,0,24,6,1,8.4177,31,1
2,20,0,46,15,1,3.6131,31,1
3,20,0,24,15,1,2.2974,31,1
4,20,0,56,29,1,2.8613,31,1
5,20,0,50,6,1,1.5913,31,1
6,20,0,29.4,15,1,2.1508,31,1
7,20,0,36.6,62,0,3.059,31,1
8,20,0,56,15,1,1.3277,31,1
9,20,0,70,118,0,2.1757,31,1
10,20,0,41.4,6,1,1.4971,31,1
11,20,0,36.6,15,1,1.9506,31,1
12,20,0,24,2,1,1.6764,31,1
13,20,0,29.4,62,0,2.5116,31,1
14,20,0,20.4,2,0,2.5676,31,1
15,20,0,50,2,1,1.88,31,1
16,20,0,30,62,0,2.5476,31,1
17,20,0,29.4,29,0,2.9196,31,1
18,20,0,36.6,29,1,2.0963,31,1
19,20,0,26.6,29,0,1.6182,31,1
20,20,0,76,62,1,4.2419,31,1
21,20,0,24,29,0,2.4998,31,1
22,20,0,70,15,1,1.2424,31,1
23,20,0,34,29,1,3.4875,31,1
24,20,0,20.4,15,0,1.2519,31,1
25,20,0,76,6,1,1.8443,31,1
26,20,0,24,15,0,3.6017,31,1
27,20,0,26.6,15,0,3.1561,31,1
28,20,0,24,118,0,1.5275,31,1
29,20,0,56,6,1,1.9997,31,1
30,20,0,24,2,1,1.2767,31,1
31,20,0,24,62,0,5.4957,31,1
32,20,0,20.4,62,0,1.6061,31,1
33,20,0,30,118,0,1.9473,31,1
34,20,0,34,15,1,5.6827,31,1
35,20,0,26.6,2,0,1.7426,31,1
36,20,0,30,6,1,2.7445,31,1
37,20,0,26.6,62,0,2.9428,31,1
38,20,0,34,62,1,3.0935,31,1
39,20,0,26.6,6,1,3.3006,31,1
40,20,0,21.6,6,0,3.0141,31,1
41,20,0,56,118,0,0.9717,31,1
42,20,0,70,6,1,1.3614,31,1
43,20,0,20.4,118,0,1.9314,31,1
44,20,0,24,118,0,1.3502,31,1
45,20,0,62,2,1,1.8507,31,1
46,20,0,21.6,29,0,1.4096,31,1
47,20,0,76,2,1,1.1716,31,1
48,20,0,34,118,0,1.0756,31,1
49,20,0,41.4,118,0,1.2054,31,1
50,20,0,26.6,118,0,1.5147,31,1
51,20,0,36.6,6,1,3.3311,31,1
52,20,0,76,118,0,1.2894,31,1
53,20,0,20.4,29,0,1.2617,31,1
54,20,0,62,6,1,1.2063,31,1
55,20,0,36.6,2,1,1.7458,31,1
56,20,0,30,29,0,4.0607,31,1
57,20,0,41.4,15,1,2.1591,31,1
58,20,0,24,29,0,2.6045,31,1
59,20,0,70,2,1,1.1024,31,1
60,20,0,56,62,0,2.4916,31,1
61,20,0,30,15,1,2.3043,31,1
62,20,0,50,29,1,3.2324,31,1
63,20,0,30,2,1,1.3812,31,1
64,20,0,34,6,1,1.6144,31,1
65,20,0,34,2,1,2.6414,31,1
66,20,0,29.4,118,0,1.12,31,1
67,20,0,62,15,1,1.3216,31,1
68,20,0,36.6,118,0,1.621,31,1
69,20,0,46,6,1,1.2937,31,1
70,20,0,21.6,15,0,1.6113,31,1
71,20,0,29.4,6,1,3.1224,31,1
72,20,0,46,118,0,1.0914,31,1
73,20,0,50,62,0,2.8606,31,1
74,20,0,76,15,1,1.6395,31,1
75,20,0,70,29,1,1.3944,31,1
76,20,0,46,62,0,1.5462,31,1
77,20,0,56,2,1,1.5441,31,1
78,20,0,41.4,29,1,2.9431,31,1
79,20,0,62,29,1,2.3401,31,1
80,20,0,21.6,118,0,2.1453,31,1
81,20,0,46,2,1,0.828,31,1
82,20,0,50,118,0,1.0268,31,1
83,20,0,24,6,1,1.1526,31,1
84,20,0,24,62,1,1.7412,31,1
85,20,0,21.6,2,0,3.3164,31,1
86,20,0,62,118,0,1.3876,31,1
87,20,0,50,15,1,1.2997,31,1
88,20,0,62,62,1,4.6121,31,1
89,20,0,76,29,1,1.9713,31,1
90,20,0,41.4,2,1,1.3434,31,1
91,20,0,46,29,1,1.9232,31,1
92,20,0,21.6,62,0,1.98,31,1
93,20,0,20.4,6,0,1.3703,31,1
94,20,0,41.4,62,0,3.8914,31,1
95,20,0,70,62,1,2.4752,31,1
96,20,0,29.4,2,1,2.0778,31,1
1,20,0,56,29,1,7.9258,7,1
2,20,0,36.6,62,1,1.9557,7,1
3,20,0,26.6,118,1,1.9721,7,1
4,20,0,24,29,1,1.1964,7,1
5,20,0,70,118,1,1.2094,7,1
6,20,0,34,118,1,1.3243,7,1
7,20,0,62,15,1,1.3716,7,1
8,20,0,30,118,1,1.2003,7,1
9,20,0,29.4,6,1,1.722,7,1
10,20,0,56,2,1,2.336,7,1
11,20,0,70,62,1,0.7433,7,1
12,20,0,50,6,1,0.6842,7,1
13,20,0,29.4,62,1,0.6586,7,1
14,20,0,50,62,1,0.7415,7,1
15,20,0,41.4,62,1,0.8404,7,1
16,20,0,34,2,1,0.5902,7,1
17,20,0,41.4,2,1,0.847,7,1
18,20,0,34,29,1,0.6369,7,1
19,20,0,34,62,1,0.7263,7,1
20,20,0,56,6,1,0.6311,7,1
21,20,0,76,62,1,0.5261,7,1
22,20,0,36.6,15,1,0.4355,7,1
23,20,0,29.4,118,1,1.2552,7,1
24,20,0,41.4,6,1,0.7906,7,1
25,20,0,41.4,15,1,1.3745,7,1
26,20,0,36.6,118,1,0.8755,7,1
27,20,0,30,2,1,0.5351,7,1
28,20,0,29.4,15,1,0.359,7,1
29,20,0,24,118,1,0.6237,7,1
30,20,0,50,29,1,0.4737,7,1
31,20,0,24,118,1,0.5831,7,1
32,20,0,76,6,1,0.9422,7,1
33,20,0,24,6,1,1.0129,7,1
34,20,0,62,29,1,0.9788,7,1
35,20,0,46,118,1,0.6654,7,1
36,20,0,62,2,1,0.5391,7,1
37,20,0,36.6,29,1,0.5995,7,1
38,20,0,29.4,2,1,0.4472,7,1
39,20,0,46,29,1,0.6185,7,1
40,20,0,62,6,1,0.818,7,1
41,20,0,24,62,1,0.6031,7,1
42,20,0,76,118,1,0.5697,7,1
43,20,0,41.4,29,1,0.4867,7,1
44,20,0,46,6,1,0.4428,7,1
45,20,0,21.6,62,1,0.4883,7,1
46,20,0,21.6,118,1,0.374,7,1
47,20,0,50,15,1,0.7927,7,1
48,20,0,24,6,1,0.7679,7,1
49,20,0,21.6,6,1,0.5983,7,1
50,20,0,24,62,1,0.8569,7,1
51,20,0,30,62,1,0.9471,7,1
52,20,0,76,2,1,0.7101,7,1
53,20,0,24,15,1,0.8907,7,1
54,20,0,20.4,62,0,1.5074,7,1
55,20,0,36.6,2,1,0.8878,7,1
56,20,0,56,118,1,0.9745,7,1
57,20,0,24,2,1,1.6804,7,1
58,20,0,29.4,29,1,1.1856,7,1
59,20,0,20.4,29,1,1.4923,7,1
60,20,0,36.6,6,1,0.9036,7,1
61,20,0,30,6,1,0.8334,7,1
62,20,0,62,62,1,1.5828,7,1
63,20,0,46,2,1,0.8732,7,1
64,20,0,21.6,15,1,1.4584,7,1
65,20,0,21.6,2,1,0.7549,7,1
66,20,0,34,15,1,0.5617,7,1
67,20,0,21.6,29,1,0.6616,7,1
68,20,0,24,29,1,0.7883,7,1
69,20,0,70,2,1,0.7518,7,1
70,20,0,56,15,1,0.7455,7,1
71,20,0,26.6,15,1,0.7674,7,1
72,20,0,56,62,1,0.6885,7,1
73,20,0,26.6,29,1,1.9905,7,1
74,20,0,26.6,62,1,0.8924,7,1
75,20,0,24,15,1,1.1809,7,1
76,20,0,26.6,6,1,0.8368,7,1
77,20,0,70,6,1,0.7119,7,1
78,20,0,26.6,2,1,0.7471,7,1
79,20,0,50,2,1,0.6232,7,1
80,20,0,76,29,1,0.9461,7,1
81,20,0,70,15,1,0.5821,7,1
82,20,0,20.4,118,0,1.0957,7,1
83,20,0,70,29,1,0.6195,7,1
84,20,0,30,15,1,0.5765,7,1
85,20,0,34,6,1,0.5273,7,1
86,20,0,30,29,1,0.8453,7,1
87,20,0,50,118,1,0.8818,7,1
88,20,0,20.4,15,1,2.8227,7,1
89,20,0,20.4,6,1,1.2018,7,1
90,20,0,20.4,2,1,1.0788,7,1
91,20,0,62,118,1,0.7218,7,1
92,20,0,76,15,1,0.6696,7,1
93,20,0,46,15,1,0.6878,7,1
94,20,0,46,62,1,1.058,7,1
95,20,0,24,2,0,0.8499,7,1
96,20,0,41.4,118,1,1.0376,7,1
1,20,0,46,62,1,10.5816,19,1
2,20,0,24,6,0,2.8161,19,1
3,20,0,20.4,15,0,2.6429,19,1
4,20,0,76,6,1,1.7291,19,1
5,20,0,76,118,1,3.1384,19,1
6,20,0,30,15,1,1.2826,19,1
7,20,0,56,15,1,2.0243,19,1
8,20,0,26.6,118,0,2.2438,19,1
9,20,0,50,118,1,2.1263,19,1
10,20,0,21.6,15,0,2.2311,19,1
11,20,0,24,15,0,1.9194,19,1
12,20,0,29.4,15,1,2.3284,19,1
13,20,0,34,118,0,1.343,19,1
14,20,0,24,2,1,3.3856,19,1
15,20,0,56,118,0,1.6915,19,1
16,20,0,70,118,1,1.2869,19,1
17,20,0,24,118,0,1.1519,19,1
18,20,0,46,6,1,1.947,19,1
19,20,0,56,29,1,1.1389,19,1
20,20,0,62,62,1,1.6396,19,1
21,20,0,34,15,1,2.3928,19,1
22,20,0,26.6,2,1,1.5881,19,1
23,20,0,30,29,1,2.3913,19,1
24,20,0,26.6,62,0,1.9988,19,1
25,20,0,76,62,1,1.1665,19,1
26,20,0,62,2,1,1.5722,19,1
27,20,0,29.4,62,0,1.517,19,1
28,20,0,50,2,1,0.8009,19,1
29,20,0,24,29,0,1.8404,19,1
30,20,0,36.6,62,0,1.6234,19,1
31,20,0,21.6,2,1,2.3908,19,1
32,20,0,20.4,6,0,1.8538,19,1
33,20,0,56,2,1,1.1129,19,1
34,20,0,30,6,1,1.3113,19,1
35,20,0,50,29,1,0.9326,19,1
36,20,0,24,29,0,2.0842,19,1
37,20,0,46,2,1,0.9543,19,1
38,20,0,62,29,1,0.9544,19,1
39,20,0,46,29,1,0.8934,19,1
40,20,0,24,118,0,1.2311,19,1
41,20,0,20.4,118,0,1.763,19,1
42,20,0,26.6,29,0,1.9271,19,1
43,20,0,21.6,62,0,1.6111,19,1
44,20,0,29.4,118,0,1.0547,19,1
45,20,0,50,6,1,1.0208,19,1
46,20,0,46,15,1,1.002,19,1
47,20,0,70,29,1,0.7391,19,1
48,20,0,24,15,0,1.4793,19,1
49,20,0,36.6,6,1,1.3016,19,1
50,20,0,70,2,1,1.0081,19,1
51,20,0,26.6,6,1,1.3124,19,1
52,20,0,76,15,1,0.7217,19,1
53,20,0,70,6,1,0.6486,19,1
54,20,0,41.4,62,1,4.5206,19,1
55,20,0,41.4,2,1,1.1229,19,1
56,20,0,34,62,0,6.226,19,1
57,20,0,76,2,1,0.5658,19,1
58,20,0,24,2,1,0.8378,19,1
59,20,0,36.6,2,1,0.9903,19,1
60,20,0,56,6,1,0.7877,19,1
61,20,0,50,62,1,1.3243,19,1
62,20,0,30,118,0,1.3865,19,1
63,20,0,56,62,1,0.8847,19,1
64,20,0,34,6,1,0.9118,19,1
65,20,0,36.6,15,1,1.4648,19,1
66,20,0,34,2,1,0.8954,19,1
67,20,0,21.6,118,0,0.9712,19,1
68,20,0,76,29,1,0.86,19,1
69,20,0,29.4,29,1,4.6559,19,1
70,20,0,62,6,1,0.8384,19,1
71,20,0,36.6,118,1,0.7293,19,1
72,20,0,34,29,1,0.6917,19,1
73,20,0,41.4,15,1,0.8602,19,1
74,20,0,62,15,1,0.7733,19,1
75,20,0,62,118,1,2.1253,19,1
76,20,0,21.6,6,0,1.4803,19,1
77,20,0,20.4,29,0,1.2424,19,1
78,20,0,41.4,29,1,1.4895,19,1
79,20,0,24,62,0,1.3153,19,1
80,20,0,30,2,1,1.1047,19,1
81,20,0,24,62,0,2.4872,19,1
82,20,0,26.6,15,0,4.0208,19,1
83,20,0,21.6,29,0,1.7647,19,1
84,20,0,29.4,2,1,1.1149,19,1
85,20,0,46,118,0,1.556,19,1
86,20,0,70,15,1,0.5936,19,1
87,20,0,20.4,62,0,1.1598,19,1
88,20,0,70,62,1,0.8557,19,1
89,20,0,30,62,0,1.1248,19,1
90,20,0,36.6,29,1,2.554,19,1
91,20,0,50,15,1,0.7695,19,1
92,20,0,29.4,6,1,1.2205,19,1
93,20,0,41.4,118,0,1.7052,19,1
94,20,0,24,6,1,0.7073,19,1
95,20,0,41.4,6,1,0.9446,19,1
96,20,0,20.4,2,0,1.0793,19,1
1,20,0,28.6,120,0,26.824,23,1
2,20,0,71,30,0,3.8309,23,1
3,20,0,60,30,0,5.9388,23,1
4,20,0,20.6,120,0,2.4365,23,1
5,20,0,27.4,3,1,3.8359,23,1
6,20,0,28.6,30,0,4.5751,23,1
7,20,0,75,8,1,2.4848,23,1
8,20,0,35,120,0,2.8476,23,1
9,20,0,75,30,1,3.5389,23,1
10,20,0,75,3,1,5.2806,23,1
11,20,0,58,3,1,3.5848,23,1
12,20,0,32,60,0,2.7942,23,1
13,20,0,32,14,0,6.7518,23,1
14,20,0,21.6,60,0,2.0945,23,1
15,20,0,20.6,14,0,3.094,23,1
16,20,0,21.6,120,0,3.1964,23,1
17,20,0,35,30,0,3.7951,23,1
18,20,0,47,14,1,3.5689,23,1
19,20,0,25,120,0,3.8922,23,1
20,20,0,21.6,8,0,8.5838,23,1
21,20,0,21.6,14,0,10.1659,23,1
22,20,0,75,60,0,3.4864,23,1
23,20,0,36.2,3,1,5.7188,23,1
24,20,0,28.6,3,1,4.771,23,1
25,20,0,35,14,1,3.1246,23,1
26,20,0,27.4,60,0,2.6031,23,1
27,20,0,21.6,30,0,2.6449,23,1
28,20,0,71,60,0,5.4858,23,1
29,20,0,36.2,120,0,2.3236,23,1
30,20,0,27.4,120,0,2.0494,23,1
31,20,0,36.2,14,0,5.4409,23,1
32,20,0,58,120,0,4.7544,23,1
33,20,0,32,120,0,1.9505,23,1
34,20,0,36.2,8,1,6.317,23,1
35,20,0,32,30,0,3.7371,23,1
36,20,0,47,30,0,3.8203,23,1
37,20,0,27.4,14,0,5.6768,23,1
38,20,0,27.4,30,0,3.0952,23,1
39,20,0,47,8,1,1.9299,23,1
40,20,0,23,30,0,2.3275,23,1
41,20,0,21.6,3,0,2.9841,23,1
42,20,0,60,60,0,3.5688,23,1
43,20,0,71,8,1,5.4247,23,1
44,20,0,49,3,1,2.08,23,1
45,20,0,36.2,60,0,4.4929,23,1
46,20,0,20.6,60,0,3.7545,23,1
47,20,0,71,3,1,4.2584,23,1
48,20,0,71,120,0,3.3267,23,1
49,20,0,47,3,1,2.378,23,1
50,20,0,35,60,0,2.5033,23,1
51,20,0,60,14,1,3.0824,23,1
52,20,0,49,60,0,2.2968,23,1
53,20,0,60,3,1,6.5673,23,1
54,20,0,25,8,0,2.701,23,1
55,20,0,35,8,1,2.3627,23,1
56,20,0,23,8,0,2.0581,23,1
57,20,0,20.6,8,0,5.8576,23,1
58,20,0,25,3,1,3.2118,23,1
59,20,0,40.6,14,1,4.5456,23,1
60,20,0,49,14,0,4.2642,23,1
61,20,0,49,8,1,2.1795,23,1
62,20,0,49,120,0,2.5217,23,1
63,20,0,28.6,60,0,5.7239,23,1
64,20,0,36.2,30,0,2.1776,23,1
65,20,0,47,120,0,4.4529,23,1
66,20,0,27.4,8,0,2.5834,23,1
67,20,0,20.6,3,0,3.1662,23,1
68,20,0,47,60,0,2.6029,23,1
69,20,0,58,60,0,4.3895,23,1
70,20,0,28.6,8,1,4.9038,23,1
71,20,0,25,14,0,3.7319,23,1
72,20,0,25,60,0,5.463,23,1
73,20,0,40.6,3,1,2.2313,23,1
74,20,0,49,30,0,2.0084,23,1
75,20,0,23,60,0,2.1701,23,1
76,20,0,23,120,0,1.3907,23,1
77,20,0,60,120,0,2.7055,23,1
78,20,0,60,8,1,2.7622,23,1
79,20,0,58,14,1,2.4738,23,1
80,20,0,25,30,0,5.3082,23,1
81,20,0,32,3,1,1.6287,23,1
82,20,0,75,14,1,1.4705,23,1
83,20,0,40.6,8,1,3.573,23,1
84,20,0,40.6,120,0,2.371,23,1
85,20,0,75,120,0,5.842,23,1
86,20,0,40.6,60,0,1.5736,23,1
87,20,0,20.6,30,0,3.8227,23,1
88,20,0,32,8,0,2.9224,23,1
89,20,0,58,8,1,2.6483,23,1
90,20,0,35,3,1,1.7096,23,1
91,20,0,40.6,30,0,4.6614,23,1
92,20,0,28.6,14,0,1.7182,23,1
93,20,0,71,14,1,4.9446,23,1
94,20,0,23,14,0,2.8472,23,1
95,20,0,23,3,0,3.2208,23,1
96,20,0,58,30,0,3.5194,23,1
1,20,0,27.4,14,1,5.8765,21,1
2,20,0,60,120,1,4.2755,21,1
3,20,0,25,60,0,2.8578,21,1
4,20,0,20.6,60,0,2.2492,21,1
5,20,0,35,60,1,4.1988,21,1
6,20,0,49,8,1,2.0108,21,1
7,20,0,25,120,0,3.5137,21,1
8,20,0,75,30,1,5.5839,21,1
9,20,0,32,14,1,1.933,21,1
10,20,0,28.6,3,1,3.1235,21,1
11,20,0,71,60,1,1.9573,21,1
12,20,0,75,14,1,1.1612,21,1
13,20,0,49,120,1,2.6713,21,1
14,20,0,23,120,0,1.6257,21,1
15,20,0,28.6,30,0,4.1499,21,1
16,20,0,36.2,60,1,6.4133,21,1
17,20,0,20.6,3,0,1.6477,21,1
18,20,0,20.6,120,0,1.6426,21,1
19,20,0,28.6,120,0,1.4307,21,1
20,20,0,20.6,30,0,1.4934,21,1
21,20,0,75,8,1,3.3708,21,1
22,20,0,60,3,1,1.4124,21,1
23,20,0,75,3,1,2.3985,21,1
24,20,0,20.6,14,0,1.7328,21,1
25,20,0,25,14,1,4.8022,21,1
26,20,0,32,30,1,3.9056,21,1
27,20,0,71,8,1,1.1716,21,1
28,20,0,21.6,14,0,1.2883,21,1
29,20,0,35,120,1,3.5429,21,1
30,20,0,36.2,120,0,6.0784,21,1
31,20,0,32,120,0,5.254,21,1
32,20,0,32,8,1,2.5163,21,1
33,20,0,36.2,30,1,3.7735,21,1
34,20,0,28.6,8,1,3.0214,21,1
35,20,0,25,3,1,2.0111,21,1
36,20,0,47,14,1,2.8509,21,1
37,20,0,21.6,60,0,1.925,21,1
38,20,0,71,3,1,2.0528,21,1
39,20,0,36.2,3,1,1.4304,21,1
40,20,0,71,30,1,0.8871,21,1
41,20,0,40.6,14,1,1.6108,21,1
42,20,0,32,3,1,2.8507,21,1
43,20,0,27.4,3,1,2.2131,21,1
44,20,0,47,3,1,1.315,21,1
45,20,0,49,30,1,4.7378,21,1
46,20,0,35,30,1,2.8018,21,1
47,20,0,49,3,1,0.8289,21,1
48,20,0,23,8,0,2.2809,21,1
49,20,0,40.6,60,1,1.6458,21,1
50,20,0,71,120,1,1.7761,21,1
51,20,0,58,30,1,2.5737,21,1
52,20,0,35,14,1,1.7538,21,1
53,20,0,25,8,1,1.6861,21,1
54,20,0,40.6,3,1,1.2313,21,1
55,20,0,49,14,1,2.2435,21,1
56,20,0,58,14,1,1.9524,21,1
57,20,0,47,120,1,2.0162,21,1
58,20,0,71,14,1,1.2903,21,1
59,20,0,36.2,8,1,2.0891,21,1
60,20,0,20.6,8,0,1.9706,21,1
61,20,0,32,60,1,1.8231,21,1
62,20,0,27.4,120,0,2.5589,21,1
63,20,0,21.6,120,0,1.8399,21,1
64,20,0,36.2,14,1,1.7958,21,1
65,20,0,49,60,1,1.5105,21,1
66,20,0,35,8,1,1.5988,21,1
67,20,0,21.6,30,0,3.3784,21,1
68,20,0,23,14,0,1.4881,21,1
69,20,0,23,3,0,1.5219,21,1
70,20,0,47,30,1,2.6394,21,1
71,20,0,60,14,1,1.2041,21,1
72,20,0,58,120,1,1.3949,21,1
73,20,0,58,8,1,1.9666,21,1
74,20,0,25,30,0,2.0471,21,1
75,20,0,58,3,1,1.2454,21,1
76,20,0,40.6,120,1,1.7992,21,1
77,20,0,23,60,0,1.3353,21,1
78,20,0,27.4,8,0,1.7759,21,1
79,20,0,21.6,3,0,2.2934,21,1
80,20,0,21.6,8,0,1.3436,21,1
81,20,0,58,60,1,2.1152,21,1
82,20,0,60,60,1,2.4795,21,1
83,20,0,23,30,0,1.9845,21,1
84,20,0,60,8,1,1.6416,21,1
85,20,0,27.4,60,0,2.1213,21,1
86,20,0,40.6,30,1,1.2805,21,1
87,20,0,27.4,30,0,2.6087,21,1
88,20,0,75,120,1,0.9396,21,1
89,20,0,28.6,60,0,2.6545,21,1
90,20,0,40.6,8,1,1.6357,21,1
91,20,0,47,60,1,0.9069,21,1
92,20,0,60,30,1,0.8612,21,1
93,20,0,35,3,1,1.6946,21,1
94,20,0,75,60,1,0.895,21,1
95,20,0,47,8,1,1.8439,21,1
96,20,0,28.6,14,1,3.5018,21,1
1,20,0,27.4,60,0,5.7518,33,1
2,20,0,23,14,0,4.5349,33,1
3,20,0,40.6,3,1,3.2663,33,1
4,20,0,27.4,14,1,5.529,33,1
5,20,0,23,120,0,3.5872,33,1
6,20,0,32,30,1,4.6732,33,1
7,20,0,60,60,0,5.6814,33,1
8,20,0,40.6,8,1,3.0336,33,1
9,20,0,47,8,1,3.2983,33,1
10,20,0,20.6,8,0,3.0647,33,1
11,20,0,71,3,1,2.4227,33,1
12,20,0,27.4,30,1,3.2836,33,1
13,20,0,36.2,8,1,2.1219,33,1
14,20,0,20.6,14,0,3.5371,33,1
15,20,0,60,3,1,2.1603,33,1
16,20,0,35,8,1,1.3322,33,1
17,20,0,60,14,1,1.5471,33,1
18,20,0,47,3,1,2.0548,33,1
19,20,0,23,3,0,4.3913,33,1
20,20,0,28.6,60,0,3.0515,33,1
21,20,0,32,60,0,2.8045,33,1
22,20,0,75,8,1,2.1257,33,1
23,20,0,47,120,0,2.6252,33,1
24,20,0,28.6,8,1,2.3082,33,1
25,20,0,71,30,1,2.2223,33,1
26,20,0,71,120,0,2.1933,33,1
27,20,0,36.2,14,1,6.5123,33,1
28,20,0,75,120,0,3.6815,33,1
29,20,0,20.6,30,0,2.0032,33,1
30,20,0,49,3,1,1.9884,33,1
31,20,0,58,14,1,2.5661,33,1
32,20,0,32,3,1,3.7075,33,1
33,20,0,75,30,1,3.0434,33,1
34,20,0,60,30,1,3.0586,33,1
35,20,0,75,14,1,1.5416,33,1
36,20,0,28.6,120,0,2.7918,33,1
37,20,0,20.6,3,0,2.7514,33,1
38,20,0,25,3,1,1.7083,33,1
39,20,0,25,120,0,2.2855,33,1
40,20,0,35,14,1,2.4411,33,1
41,20,0,49,120,0,2.2423,33,1
42,20,0,49,60,0,2.5143,33,1
43,20,0,21.6,3,0,2.8124,33,1
44,20,0,21.6,120,0,1.5532,33,1
45,20,0,60,8,1,2.8003,33,1
46,20,0,20.6,60,0,2.8972,33,1
47,20,0,27.4,120,0,4.9336,33,1
48,20,0,28.6,3,1,2.2056,33,1
49,20,0,21.6,30,0,1.9576,33,1
50,20,0,58,3,1,1.9318,33,1
51,20,0,35,60,0,4.3689,33,1
52,20,0,23,60,0,2.6968,33,1
53,20,0,25,14,1,5.8202,33,1
54,20,0,40.6,30,1,8.6602,33,1
55,20,0,27.4,8,1,3.2064,33,1
56,20,0,28.6,14,1,1.7081,33,1
57,20,0,60,120,0,3.1677,33,1
58,20,0,32,8,1,2.6273,33,1
59,20,0,36.2,120,0,3.2721,33,1
60,20,0,47,14,1,4.8952,33,1
61,20,0,71,60,0,6.3525,33,1
62,20,0,36.2,60,0,1.9999,33,1
63,20,0,71,8,1,2.4051,33,1
64,20,0,75,60,1,5.047,33,1
65,20,0,58,120,0,3.158,33,1
66,20,0,58,60,0,2.424,33,1
67,20,0,40.6,14,1,2.3366,33,1
68,20,0,23,30,0,4.0611,33,1
69,20,0,35,30,1,4.3223,33,1
70,20,0,47,60,0,2.7004,33,1
71,20,0,47,30,0,1.803,33,1
72,20,0,25,30,0,4.8471,33,1
73,20,0,21.6,8,0,2.8859,33,1
74,20,0,58,8,1,2.6893,33,1
75,20,0,71,14,1,2.8962,33,1
76,20,0,35,3,1,6.7396,33,1
77,20,0,49,30,1,8.6985,33,1
78,20,0,35,120,0,2.3724,33,1
79,20,0,32,120,0,2.2451,33,1
80,20,0,49,14,1,3.0729,33,1
81,20,0,25,60,0,2.5361,33,1
82,20,0,27.4,3,1,4.1358,33,1
83,20,0,23,8,1,11.8887,33,1
84,20,0,21.6,14,0,3.9654,33,1
85,20,0,28.6,30,0,2.1,33,1
86,20,0,49,8,1,3.0914,33,1
87,20,0,36.2,30,1,3.9308,33,1
88,20,0,58,30,1,2.2822,33,1
89,20,0,20.6,120,0,8.7731,33,1
90,20,0,21.6,60,0,2.5854,33,1
91,20,0,40.6,120,0,3.5906,33,1
92,20,0,36.2,3,0,4.6724,33,1
93,20,0,25,8,1,4.0612,33,1
94,20,0,32,14,1,4.6202,33,1
95,20,0,40.6,60,0,4.8665,33,1
96,20,0,75,3,1,2.4042,33,1
1,20,0,45,7,1,1.5858,9,1
2,20,0,37,1,1,1.9897,9,1
3,20,0,31,13,1,1.3332,9,1
4,20,0,29,1,1,1.4037,9,1
5,20,0,31,7,1,1.0206,9,1
6,20,0,37,122,1,1.2248,9,1
7,20,0,41,13,1,1.8484,9,1
8,20,0,57,13,1,1.2102,9,1
9,20,0,61,7,1,2.7191,9,1
10,20,0,31,58,1,1.0926,9,1
11,20,0,61,122,1,1.7529,9,1
12,20,0,21,31,1,2.1896,9,1
13,20,0,21,58,1,1.6552,9,1
14,20,0,45,31,1,1.7877,9,1
15,20,0,45,13,1,1.267,9,1
16,20,0,51,31,1,1.6618,9,1
17,20,0,21,13,1,2.3736,9,1
18,20,0,41,31,1,1.3618,9,1
19,20,0,51,1,1,0.7352,9,1
20,20,0,23,1,1,1.6584,9,1
21,20,0,27,58,0,3.45,9,1
22,20,0,41,7,1,2.4582,9,1
23,20,0,57,122,1,3.0744,9,1
24,20,0,41,58,1,2.1317,9,1
25,20,0,77,7,1,2.0331,9,1
26,20,0,25,13,1,1.5937,9,1
27,20,0,61,58,1,1.959,9,1
28,20,0,57,31,1,1.7722,9,1
29,20,0,51,13,1,1.8684,9,1
30,20,0,51,7,1,1.3621,9,1
31,20,0,61,31,1,1.0138,9,1
32,20,0,21,122,0,1.8758,9,1
33,20,0,57,58,1,1.2273,9,1
34,20,0,25,7,1,1.4314,9,1
35,20,0,37,31,1,1.1617,9,1
36,20,0,69,122,1,1.9011,9,1
37,20,0,29,31,0,2.8376,9,1
38,20,0,77,122,1,3.0665,9,1
39,20,0,25,31,0,1.7973,9,1
40,20,0,23,58,0,3.4761,9,1
41,20,0,41,122,0,2.3175,9,1
42,20,0,61,13,1,4.7393,9,1
43,20,0,27,122,0,3.8592,9,1
44,20,0,21,7,0,1.7449,9,1
45,20,0,33,1,1,2.5939,9,1
46,20,0,69,1,1,1.856,9,1
47,20,0,77,31,1,2.0232,9,1
48,20,0,37,7,1,1.9077,9,1
49,20,0,33,122,0,2.617,9,1
50,20,0,33,13,1,3.7035,9,1
51,20,0,25,122,0,3.0844,9,1
52,20,0,21,13,1,4.2915,9,1
53,20,0,21,58,0,1.8828,9,1
54,20,0,45,122,1,3.0939,9,1
55,20,0,29,58,1,1.7306,9,1
56,20,0,77,1,1,2.2503,9,1
57,20,0,29,7,1,4.1437,9,1
58,20,0,21,7,0,1.6164,9,1
59,20,0,37,58,0,2.811,9,1
60,20,0,25,1,1,2.0842,9,1
61,20,0,77,58,1,4.6832,9,1
62,20,0,69,58,1,1.824,9,1
63,20,0,23,13,0,1.9047,9,1
64,20,0,23,122,0,1.6185,9,1
65,20,0,21,1,0,1.0681,9,1
66,20,0,77,13,1,2.0656,9,1
67,20,0,27,1,1,1.9281,9,1
68,20,0,31,1,1,1.5534,9,1
69,20,0,57,1,1,1.4073,9,1
70,20,0,33,7,1,2.0849,9,1
71,20,0,27,31,0,3.4529,9,1
72,20,0,31,122,0,2.2271,9,1
73,20,0,45,58,1,5.8271,9,1
74,20,0,21,31,0,1.5443,9,1
75,20,0,23,7,0,1.7776,9,1
76,20,0,29,122,0,2.1184,9,1
77,20,0,41,1,1,2.6951,9,1
78,20,0,33,58,0,4.3873,9,1
79,20,0,25,58,0,1.7147,9,1
80,20,0,37,13,1,4.6789,9,1
81,20,0,69,7,1,1.7829,9,1
82,20,0,45,1,1,1.5106,9,1
83,20,0,21,122,0,1.5024,9,1
84,20,0,27,13,0,3.0026,9,1
85,20,0,29,13,0,3.8921,9,1
86,20,0,21,1,1,2.4193,9,1
87,20,0,61,1,1,4.487,9,1
88,20,0,51,58,1,4.3072,9,1
89,20,0,33,31,1,4.2179,9,1
90,20,0,23,31,0,2.054,9,1
91,20,0,31,31,1,4.2794,9,1
92,20,0,69,31,1,3.3774,9,1
93,20,0,69,13,1,1.4605,9,1
94,20,0,27,7,0,1.8876,9,1
95,20,0,51,122,1,2.4836,9,1
96,20,0,57,7,1,1.6214,9,1
1,20,0,61,31,1,2.8484,17,1
2,20,0,33,31,1,3.1509,17,1
3,20,0,77,122,1,3.2536,17,1
4,20,0,37,7,1,2.5076,17,1
5,20,0,51,122,1,5.3526,17,1
6,20,0,61,1,1,2.7248,17,1
7,20,0,57,7,1,3.1677,17,1
8,20,0,51,1,1,2.1525,17,1
9,20,0,51,31,1,3.3504,17,1
10,20,0,41,58,1,5.9759,17,1
11,20,0,37,122,0,2.2892,17,1
12,20,0,33,58,0,3.5111,17,1
13,20,0,27,1,1,2.8545,17,1
14,20,0,33,1,1,3.7321,17,1
15,20,0,69,1,1,1.9346,17,1
16,20,0,41,7,1,1.7231,17,1
17,20,0,21,13,0,3.6415,17,1
18,20,0,29,7,1,1.3101,17,1
19,20,0,21,1,1,3.2488,17,1
20,20,0,57,58,1,1.6165,17,1
21,20,0,23,13,0,4.251,17,1
22,20,0,21,7,0,2.2971,17,1
23,20,0,61,58,1,3.6252,17,1
24,20,0,51,58,1,2.0213,17,1
25,20,0,77,58,1,4.2563,17,1
26,20,0,69,13,1,3.4809,17,1
27,20,0,41,13,1,4.2563,17,1
28,20,0,45,1,1,1.7583,17,1
29,20,0,37,58,1,2.5757,17,1
30,20,0,29,1,1,1.709,17,1
31,20,0,21,122,0,4.1566,17,1
32,20,0,57,1,1,1.9137,17,1
33,20,0,23,31,0,2.4986,17,1
34,20,0,27,122,0,4.6054,17,1
35,20,0,23,1,1,7.2116,17,1
36,20,0,61,122,1,6.5034,17,1
37,20,0,77,1,1,1.7816,17,1
38,20,0,25,58,1,11.2854,17,1
39,20,0,69,122,1,1.8238,17,1
40,20,0,77,13,1,4.6977,17,1
41,20,0,45,122,1,5.464,17,1
42,20,0,45,31,1,1.7089,17,1
43,20,0,41,31,1,1.65,17,1
44,20,0,21,31,0,4.4585,17,1
45,20,0,69,31,1,1.8226,17,1
46,20,0,21,7,0,1.8848,17,1
47,20,0,21,122,0,2.0895,17,1
48,20,0,45,58,1,4.0203,17,1
49,20,0,29,31,1,1.4549,17,1
50,20,0,37,31,1,3.6429,17,1
51,20,0,29,58,1,1.9322,17,1
52,20,0,27,31,1,3.5858,17,1
53,20,0,29,122,0,4.9185,17,1
54,20,0,21,58,0,1.5506,17,1
55,20,0,69,7,1,1.4622,17,1
56,20,0,23,58,0,2.3512,17,1
57,20,0,51,7,1,1.444,17,1
58,20,0,31,122,0,6.1221,17,1
59,20,0,21,58,0,4.4593,17,1
60,20,0,21,1,1,2.4787,17,1
61,20,0,23,7,1,1.9378,17,1
62,20,0,21,13,0,2.2022,17,1
63,20,0,21,31,0,2.1141,17,1
64,20,0,31,58,1,2.2464,17,1
65,20,0,33,13,1,7.2793,17,1
66,20,0,45,7,1,2.5815,17,1
67,20,0,29,13,1,2.2086,17,1
68,20,0,31,13,1,2.7382,17,1
69,20,0,25,7,1,4.2061,17,1
70,20,0,37,13,1,1.2778,17,1
71,20,0,23,122,0,4.6674,17,1
72,20,0,31,7,1,2.6704,17,1
73,20,0,27,58,1,3.0481,17,1
74,20,0,25,1,1,1.6202,17,1
75,20,0,31,1,1,2.5483,17,1
76,20,0,25,122,0,3.3327,17,1
77,20,0,51,13,1,4.499,17,1
78,20,0,77,31,1,1.9717,17,1
79,20,0,31,31,1,1.7036,17,1
80,20,0,69,58,1,1.5057,17,1
81,20,0,57,31,1,1.5284,17,1
82,20,0,27,7,1,8.1674,17,1
83,20,0,27,13,1,2.2135,17,1
84,20,0,37,1,1,1.4191,17,1
85,20,0,33,122,1,2.8222,17,1
86,20,0,77,7,1,1.7979,17,1
87,20,0,41,122,1,3.2666,17,1
88,20,0,25,13,1,4.1802,17,1
89,20,0,57,122,1,1.8654,17,1
90,20,0,33,7,1,1.5628,17,1
91,20,0,61,7,1,1.7468,17,1
92,20,0,57,13,1,3.5349,17,1
93,20,0,45,13,1,1.3401,17,1
94,20,0,41,1,1,1.3322,17,1
95,20,0,61,13,1,1.6951,17,1
96,20,0,25,31,1,2.7951,17,1
1,20,0,29,31,1,2.3884,5,1
2,20,0,41,7,1,1.3162,5,1
3,20,0,31,1,1,3.7991,5,1
4,20,0,45,31,1,1.4348,5,1
5,20,0,25,1,1,2.1195,5,1
6,20,0,21,58,0,2.8901,5,1
7,20,0,57,31,1,1.6918,5,1
8,20,0,29,13,1,2.0576,5,1
9,20,0,69,122,1,5.1438,5,1
10,20,0,23,31,0,2.4074,5,1
11,20,0,57,7,1,1.9423,5,1
12,20,0,29,1,1,1.5541,5,1
13,20,0,41,31,1,2.3556,5,1
14,20,0,33,31,1,2.6693,5,1
15,20,0,23,13,0,4.5769,5,1
16,20,0,31,7,1,1.5333,5,1
17,20,0,57,13,1,0.9639,5,1
18,20,0,51,13,1,2.1746,5,1
19,20,0,25,58,0,4.3643,5,1
20,20,0,31,31,1,4.2428,5,1
21,20,0,37,7,1,1.723,5,1
22,20,0,29,58,0,2.873,5,1
23,20,0,21,7,0,1.9411,5,1
24,20,0,77,58,1,1.6583,5,1
25,20,0,27,122,0,2.36,5,1
26,20,0,77,13,1,1.7133,5,1
27,20,0,33,122,1,5.609,5,1
28,20,0,41,58,1,1.6945,5,1
29,20,0,41,1,1,1.0013,5,1
30,20,0,23,122,0,2.5351,5,1
31,20,0,69,58,1,4.5177,5,1
32,20,0,37,13,1,3.0546,5,1
33,20,0,61,58,1,2.8063,5,1
34,20,0,37,31,1,2.6982,5,1
35,20,0,77,1,1,0.9839,5,1
36,20,0,51,122,1,2.0317,5,1
37,20,0,33,13,1,2.8192,5,1
38,20,0,21,1,1,3.5872,5,1
39,20,0,21,1,1,1.7934,5,1
40,20,0,27,7,1,1.3255,5,1
41,20,0,23,7,0,6.2087,5,1
42,20,0,77,122,1,1.598,5,1
43,20,0,37,1,1,5.0447,5,1
44,20,0,61,1,1,2.0742,5,1
45,20,0,37,122,1,1.7113,5,1
46,20,0,31,58,1,3.5159,5,1
47,20,0,61,13,1,1.1587,5,1
48,20,0,77,31,1,3.4022,5,1
49,20,0,77,7,1,1.4602,5,1
50,20,0,29,122,0,5.2081,5,1
51,20,0,27,58,1,3.0053,5,1
52,20,0,45,122,1,3.0005,5,1
53,20,0,61,31,1,6.3943,5,1
54,20,0,41,13,1,1.991,5,1
55,20,0,21,122,0,2.3645,5,1
56,20,0,51,7,1,1.1315,5,1
57,20,0,69,31,1,0.9706,5,1
58,20,0,21,58,0,2.0569,5,1
59,20,0,33,7,1,2.3502,5,1
60,20,0,45,13,1,1.8241,5,1
61,20,0,25,7,1,2.9841,5,1
62,20,0,21,31,0,3.4392,5,1
63,20,0,51,58,1,3.0343,5,1
64,20,0,37,58,1,4.1703,5,1
65,20,0,61,7,1,1.1676,5,1
66,20,0,33,58,1,3.049,5,1
67,20,0,33,1,1,1.4296,5,1
68,20,0,57,58,1,1.7915,5,1
69,20,0,21,122,0,2.9474,5,1
70,20,0,27,1,1,3.5552,5,1
71,20,0,25,122,1,2.3939,5,1
72,20,0,21,7,0,1.261,5,1
73,20,0,21,13,0,6.7846,5,1
74,20,0,45,1,1,1.9185,5,1
75,20,0,57,1,1,1.8033,5,1
76,20,0,45,58,1,2.9394,5,1
77,20,0,23,1,1,2.6764,5,1
78,20,0,25,31,1,3.1898,5,1
79,20,0,31,122,1,5.3895,5,1
80,20,0,45,7,1,1.0883,5,1
81,20,0,21,31,0,2.0267,5,1
82,20,0,69,1,1,2.7801,5,1
83,20,0,25,13,1,1.912,5,1
84,20,0,29,7,1,4.3146,5,1
85,20,0,69,13,1,1.1975,5,1
86,20,0,57,122,1,1.0851,5,1
87,20,0,27,31,1,1.9192,5,1
88,20,0,21,13,0,1.9766,5,1
89,20,0,61,122,1,1.8478,5,1
90,20,0,27,13,1,6.9827,5,1
91,20,0,51,31,1,0.9932,5,1
92,20,0,23,58,1,2.4994,5,1
93,20,0,31,13,1,1.2603,5,1
94,20,0,51,1,1,0.9307,5,1
95,20,0,41,122,1,1.8623,5,1
96,20,0,69,7,1,3.4582,5,1
1,20,0,41,1,1,1.865490675,23,2
2,20,0,77,7,1,2.457741737,23,2
3,20,0,61,58,1,2.906660557,23,2
4,20,0,29,7,1,3.329510689,23,2
5,20,0,29,31,0,4.179880619,23,2
6,20,0,21.1,58,0,4.067053318,23,2
7,20,0,51,1,1,2.937255621,23,2
8,20,0,69,58,0,7.202759743,23,2
9,20,0,25,31,0,2.911536455,23,2
10,20,0,37,13,0,2.875634193,23,2
11,20,0,21,122,0,4.021043777,23,2
12,20,0,23,31,0,2.946521759,23,2
13,20,0,21.1,31,0,2.81846118,23,2
14,20,0,21.1,7,0,4.561292648,23,2
15,20,0,31,31,0,5.02712822,23,2
16,20,0,57,1,1,2.066803932,23,2
17,20,0,37,31,0,4.637569904,23,2
18,20,0,31,7,1,3.601746559,23,2
19,20,0,37,7,1,3.33910656,23,2
20,20,0,21.1,1,0,2.693235874,23,2
21,20,0,27,31,0,2.941291094,23,2
22,20,0,25,7,0,3.888611078,23,2
23,20,0,21,7,0,2.317291975,23,2
24,20,0,29,13,0,3.567405939,23,2
25,20,0,57,13,1,2.329197884,23,2
26,20,0,27,122,0,2.079788685,23,2
27,20,0,27,7,1,4.282504559,23,2
28,20,0,31,58,0,4.016709328,23,2
29,20,0,77,1,1,2.081332922,23,2
30,20,0,77,58,0,4.03560257,23,2
31,20,0,45,122,0,2.814357042,23,2
32,20,0,29,58,0,6.027542114,23,2
33,20,0,51,7,1,2.416701317,23,2
34,20,0,61,13,1,2.60003376,23,2
35,20,0,77,31,0,2.344221592,23,2
36,20,0,33,13,0,3.577802658,23,2
37,20,0,21.1,122,0,2.447808504,23,2
38,20,0,61,122,0,4.471438408,23,2
39,20,0,33,122,0,2.300629377,23,2
40,20,0,29,1,1,2.211219788,23,2
41,20,0,31,13,1,2.509067059,23,2
42,20,0,33,1,1,1.838696599,23,2
43,20,0,41,31,0,3.325285673,23,2
44,20,0,27,13,0,4.673192978,23,2
45,20,0,51,13,1,3.973974705,23,2
46,20,0,41,13,1,4.232212067,23,2
47,20,0,51,122,0,2.971348763,23,2
48,20,0,51,31,0,2.997423172,23,2
49,20,0,61,1,1,1.626033902,23,2
50,20,0,33,7,1,4.278366566,23,2
51,20,0,21.1,13,0,1.77299881,23,2
52,20,0,57,31,0,2.118617535,23,2
53,20,0,41,7,1,6.394771099,23,2
54,20,0,77,122,0,3.717584372,23,2
55,20,0,37,58,0,5.160180092,23,2
56,20,0,57,122,0,1.87355876,23,2
57,20,0,69,122,0,2.386212587,23,2
58,20,0,31,122,0,2.604169846,23,2
59,20,0,21,58,0,5.04761219,23,2
60,20,0,21,13,0,3.838064432,23,2
61,20,0,25,1,1,1.921453118,23,2
62,20,0,21,1,0,3.148653507,23,2
63,20,0,25,13,0,2.579157114,23,2
64,20,0,69,13,1,2.518331289,23,2
65,20,0,33,58,0,1.935984015,23,2
66,20,0,61,7,1,1.931840897,23,2
67,20,0,45,31,0,3.61291337,23,2
68,20,0,23,122,0,1.916952848,23,2
69,20,0,21,31,0,2.812769175,23,2
70,20,0,61,31,1,4.740459442,23,2
71,20,0,37,1,1,1.761262178,23,2
72,20,0,45,13,1,4.070726395,23,2
73,20,0,69,1,1,2.457330465,23,2
74,20,0,57,7,1,2.80227828,23,2
75,20,0,45,7,1,2.849313498,23,2
76,20,0,31,1,1,1.869334698,23,2
77,20,0,37,122,0,1.564198256,23,2
78,20,0,41,58,0,2.603459597,23,2
79,20,0,25,122,0,1.888562202,23,2
80,20,0,25,58,0,1.800813437,23,2
81,20,0,23,58,0,1.691321254,23,2
82,20,0,77,13,1,1.988351703,23,2
83,20,0,57,58,0,4.28230238,23,2
84,20,0,29,122,0,3.033274651,23,2
85,20,0,23,7,0,5.028111935,23,2
86,20,0,27,1,1,1.76255548,23,2
87,20,0,23,1,1,3.407479763,23,2
88,20,0,45,58,0,2.968160391,23,2
89,20,0,23,13,0,3.867084503,23,2
90,20,0,69,31,0,3.457639217,23,2
91,20,0,33,31,0,3.407026291,23,2
92,20,0,51,58,0,3.242882013,23,2
93,20,0,41,122,0,1.793715715,23,2
94,20,0,27,58,0,2.142346859,23,2
95,20,0,45,1,1,2.252844572,23,2
96,20,0,69,7,1,1.921491146,23,2
1,20,0,41,1,1,1.585305929,31,2
2,20,0,77,7,1,1.975935578,31,2
3,20,0,61,58,0,2.278429985,31,2
4,20,0,29,7,1,2.324998856,31,2
5,20,0,29,31,0,4.23116684,31,2
6,20,0,21.1,58,0,2.076619148,31,2
7,20,0,51,1,1,1.741939187,31,2
8,20,0,69,58,0,3.919947147,31,2
9,20,0,25,31,0,2.470058441,31,2
10,20,0,37,13,1,2.681199074,31,2
11,20,0,21,122,0,1.830037117,31,2
12,20,0,23,31,0,2.792260647,31,2
13,20,0,21.1,31,0,1.866538763,31,2
14,20,0,21.1,7,0,1.82218945,31,2
15,20,0,31,31,0,4.456982613,31,2
16,20,0,57,1,1,2.023111343,31,2
17,20,0,37,31,1,5.285587788,31,2
18,20,0,31,7,1,1.798447728,31,2
19,20,0,37,7,1,1.410570502,31,2
20,20,0,21.1,1,0,1.361735463,31,2
21,20,0,27,31,0,3.775650501,31,2
22,20,0,25,7,1,3.708570242,31,2
23,20,0,21,7,0,2.583067894,31,2
24,20,0,29,13,1,2.881040096,31,2
25,20,0,57,13,1,2.426506519,31,2
26,20,0,27,122,0,1.383520365,31,2
27,20,0,27,7,1,2.435919285,31,2
28,20,0,31,58,0,2.867996454,31,2
29,20,0,77,1,1,1.551721454,31,2
30,20,0,77,58,1,7.26359272,31,2
31,20,0,45,122,0,1.776748061,31,2
32,20,0,29,58,0,2.189479113,31,2
33,20,0,51,7,1,2.582902908,31,2
34,20,0,61,13,1,1.620704174,31,2
35,20,0,77,31,1,2.456753016,31,2
36,20,0,33,13,1,1.763783216,31,2
37,20,0,21.1,122,0,2.613681555,31,2
38,20,0,61,122,0,1.864130259,31,2
39,20,0,33,122,0,1.628123522,31,2
40,20,0,29,1,1,1.531717181,31,2
41,20,0,31,13,1,3.015788317,31,2
42,20,0,33,1,1,1.818505168,31,2
43,20,0,41,31,1,2.68015933,31,2
44,20,0,27,13,0,3.985929966,31,2
45,20,0,51,13,1,2.311926603,31,2
46,20,0,41,13,1,1.909084916,31,2
47,20,0,51,122,0,2.031757116,31,2
48,20,0,51,31,1,1.932804942,31,2
49,20,0,61,1,1,1.317327857,31,2
50,20,0,33,7,1,1.297990561,31,2
51,20,0,21.1,13,0,2.30019474,31,2
52,20,0,57,31,1,2.209828138,31,2
53,20,0,41,7,1,1.439739943,31,2
54,20,0,77,122,0,1.540517569,31,2
55,20,0,37,58,0,4.666792393,31,2
56,20,0,57,122,0,1.251294732,31,2
57,20,0,69,122,0,1.563915253,31,2
58,20,0,31,122,0,1.785609722,31,2
59,20,0,21,58,0,3.14949441,31,2
60,20,0,21,13,0,3.723582506,31,2
61,20,0,25,1,1,1.808428526,31,2
62,20,0,21,1,0,3.038742542,31,2
63,20,0,25,13,0,4.063702106,31,2
64,20,0,69,13,1,2.92615366,31,2
65,20,0,33,58,0,2.108019829,31,2
66,20,0,61,7,1,1.775106668,31,2
67,20,0,45,31,1,2.849690914,31,2
68,20,0,23,122,0,1.482160687,31,2
69,20,0,21,31,0,2.537195921,31,2
70,20,0,61,31,1,3.114993334,31,2
71,20,0,37,1,1,1.306179881,31,2
72,20,0,45,13,1,2.593097448,31,2
73,20,0,69,1,1,1.296751142,31,2
74,20,0,57,7,1,1.763703227,31,2
75,20,0,45,7,1,1.688098073,31,2
76,20,0,31,1,1,1.521214843,31,2
77,20,0,37,122,0,1.473452568,31,2
78,20,0,41,58,0,3.414219856,31,2
79,20,0,25,122,0,1.630196452,31,2
80,20,0,25,58,0,2.377708673,31,2
81,20,0,23,58,0,5.162411213,31,2
82,20,0,77,13,1,2.560183287,31,2
83,20,0,57,58,0,6.756906986,31,2
84,20,0,29,122,0,1.476872087,31,2
85,20,0,23,7,0,1.974429131,31,2
86,20,0,27,1,1,1.439482927,31,2
87,20,0,23,1,1,1.763571143,31,2
88,20,0,45,58,0,3.305279016,31,2
89,20,0,23,13,0,2.422085047,31,2
90,20,0,69,31,1,4.600954056,31,2
91,20,0,33,31,1,3.919450521,31,2
92,20,0,51,58,0,3.684366226,31,2
93,20,0,41,122,0,1.555323124,31,2
94,20,0,27,58,0,2.890581131,31,2
95,20,0,45,1,1,1.608640194,31,2
96,20,0,69,7,1,1.627737641,31,2
1,20,0,41,1,1,1.854508877,7,2
2,20,0,77,7,1,1.362038493,7,2
3,20,0,61,58,1,1.252844095,7,2
4,20,0,29,7,1,1.250886798,7,2
5,20,0,29,31,1,1.051549673,7,2
6,20,0,21.1,58,1,2.078407288,7,2
7,20,0,51,1,1,1.385456324,7,2
8,20,0,69,58,1,1.115320921,7,2
9,20,0,25,31,1,1.65229857,7,2
10,20,0,37,13,1,1.116122723,7,2
11,20,0,21,122,0,2.300142527,7,2
12,20,0,23,31,1,1.877725482,7,2
13,20,0,21.1,31,1,1.563577294,7,2
14,20,0,21.1,7,1,1.027208805,7,2
15,20,0,31,31,1,1.364297271,7,2
16,20,0,57,1,1,1.273154855,7,2
17,20,0,37,31,1,1.006023526,7,2
18,20,0,31,7,1,0.940878332,7,2
19,20,0,37,7,1,1.295182943,7,2
20,20,0,21.1,1,1,1.206565142,7,2
21,20,0,27,31,1,1.072386503,7,2
22,20,0,25,7,1,0.469052345,7,2
23,20,0,21,7,1,1.071756721,7,2
24,20,0,29,13,1,0.870091259,7,2
25,20,0,57,13,1,3.016537905,7,2
26,20,0,27,122,1,1.544256687,7,2
27,20,0,27,7,1,0.938756108,7,2
28,20,0,31,58,1,1.497145891,7,2
29,20,0,77,1,1,1.02881372,7,2
30,20,0,77,58,1,0.894193053,7,2
31,20,0,45,122,1,1.160510182,7,2
32,20,0,29,58,1,1.007452011,7,2
33,20,0,51,7,1,0.469462395,7,2
34,20,0,61,13,1,0.959369481,7,2
35,20,0,77,31,1,0.935953498,7,2
36,20,0,33,13,1,0.846580029,7,2
37,20,0,21.1,122,0,1.855850458,7,2
38,20,0,61,122,1,1.093868017,7,2
39,20,0,33,122,1,0.983106613,7,2
40,20,0,29,1,1,1.496131182,7,2
41,20,0,31,13,1,2.658410072,7,2
42,20,0,33,1,1,3.531079769,7,2
43,20,0,41,31,1,2.212114573,7,2
44,20,0,27,13,1,1.921241164,7,2
45,20,0,51,13,1,1.072532654,7,2
46,20,0,41,13,1,1.385864139,7,2
47,20,0,51,122,1,0.514368057,7,2
48,20,0,51,31,1,1.206582308,7,2
49,20,0,61,1,1,0.981412172,7,2
50,20,0,33,7,1,1.051525235,7,2
51,20,0,21.1,13,1,0.558231235,7,2
52,20,0,57,31,1,0.759108305,7,2
53,20,0,41,7,1,0.87128073,7,2
54,20,0,77,122,1,0.826514423,7,2
55,20,0,37,58,1,0.894595802,7,2
56,20,0,57,122,1,0.761740983,7,2
57,20,0,69,122,1,1.097041488,7,2
58,20,0,31,122,1,1.163097978,7,2
59,20,0,21,58,1,1.02682209,7,2
60,20,0,21,13,1,1.364217639,7,2
61,20,0,25,1,1,0.916319072,7,2
62,20,0,21,1,1,0.938664794,7,2
63,20,0,25,13,1,0.55885011,7,2
64,20,0,69,13,1,0.848827302,7,2
65,20,0,33,58,1,0.536354184,7,2
66,20,0,61,7,1,0.98261553,7,2
67,20,0,45,31,1,0.513542414,7,2
68,20,0,23,122,1,0.760302842,7,2
69,20,0,21,31,1,1.517781973,7,2
70,20,0,61,31,1,0.940591037,7,2
71,20,0,37,1,1,0.960183859,7,2
72,20,0,45,13,1,0.602811456,7,2
73,20,0,69,1,1,0.848369956,7,2
74,20,0,57,7,1,0.848630369,7,2
75,20,0,45,7,1,0.647384584,7,2
76,20,0,31,1,1,0.783469439,7,2
77,20,0,37,122,1,0.916582108,7,2
78,20,0,41,58,1,0.62557888,7,2
79,20,0,25,122,1,0.937444746,7,2
80,20,0,25,58,1,0.689706206,7,2
81,20,0,23,58,1,0.535063446,7,2
82,20,0,77,13,1,1.116511464,7,2
83,20,0,57,58,1,1.095382333,7,2
84,20,0,29,122,1,1.740908027,7,2
85,20,0,23,7,1,0.760480762,7,2
86,20,0,27,1,1,0.513885379,7,2
